Subj_idx,trial,condition,stimulus,response,confidence,rt,correct
1,1,3,1,1,0.888,9.39699345792178,1
1,2,3,2,1,0.51,10.0445379579905,0
1,3,2,1,2,0.693,3.05548474995885,0
1,4,1,2,2,0.518,18.9472722079372,1
1,5,3,1,1,0.702,4.63401425001211,1
1,6,2,2,2,0.627,9.04982087493408,1
1,7,2,2,1,0.604,3.6767113750102,0
1,8,2,2,1,0.509,25.5241677089361,0
1,9,1,1,2,0.691,7.42048025003169,0
1,10,2,1,1,0.895,3.86444237502292,1
1,11,1,1,1,0.713,38.3138737919508,1
1,12,2,2,1,0.633,3.00935545901302,0
1,13,1,1,2,0.574,2.92130008293316,0
1,14,2,1,2,0.528,2.86065566691104,0
1,15,2,1,2,0.716,12.1567384171067,0
1,16,3,2,1,0.599,1.97380229097325,0
1,17,2,2,2,0.805,2.52936520904768,1
1,18,3,1,1,0.686,2.08457170799375,1
1,19,3,2,1,0.712,1.64140650001355,0
1,20,1,1,2,0.783,2.4060305840103,0
1,21,3,1,1,0.836,2.4127819580026,1
1,22,1,2,2,0.845,2.28161687508691,1
1,23,1,1,1,0.714,1.69234529195819,1
1,24,3,2,2,0.753,2.13664566597436,1
1,25,1,2,2,0.76,1.2921447919216,1
1,26,1,2,1,0.85,1.81410920899361,0
1,27,2,1,1,0.823,2.35173679108266,1
1,28,1,1,1,0.822,1.36594383302145,1
1,29,1,2,2,0.836,2.23987179202959,1
1,30,1,1,2,0.626,2.31753175007179,0
1,31,3,1,1,0.667,1.45541233406402,1
1,32,3,2,2,0.62,2.27082220907323,1
1,33,1,2,2,0.581,1.51294470799621,1
1,34,1,2,2,0.757,1.60121545894071,1
1,35,2,2,2,0.639,2.16601066698786,1
1,36,1,2,2,0.7,3.19611900008749,1
1,37,3,2,1,0.612,5.48971291701309,0
1,38,1,1,2,0.639,1.88610866700765,0
1,39,2,1,2,0.702,2.03176887496375,0
1,40,3,1,1,0.694,1.83762895909604,1
1,41,1,2,2,0.771,10.0881642500171,1
1,42,1,1,1,0.654,1.765533833066,1
1,43,2,1,2,0.831,2.46659408393316,0
1,44,3,2,2,0.667,1.78646570793353,1
1,45,1,2,2,0.702,1.33233270794153,1
1,46,2,1,2,0.7,1.16330529097468,0
1,47,2,2,1,0.79,2.35623400006443,0
1,48,1,1,2,0.606,3.17529699997976,0
1,49,2,1,2,0.694,1.43876437505241,0
1,50,2,2,1,0.702,2.14633908402175,0
1,1,3,2,2,0.721,2.98480708396528,1
1,2,1,1,2,0.589,6.94904129207134,0
1,3,1,1,2,0.688,1.90286437503528,0
1,4,2,1,2,0.511,2.31943925004452,0
1,5,3,2,1,0.648,1.50386033405084,0
1,6,2,2,2,0.904,4.16198029194493,1
1,7,1,2,1,0.71,3.90717437502462,0
1,8,3,2,2,0.654,2.05539304204285,1
1,9,1,2,2,0.503,2.27011549996678,1
1,10,2,1,1,0.689,1.82845250004902,1
1,11,3,2,1,0.824,1.36361050000414,0
1,12,1,2,1,0.5,2.40486599993892,0
1,13,3,1,2,0.505,3.66686150000896,0
1,14,3,2,2,0.807,1.58323304099031,1
1,15,3,2,2,0.737,1.4491522499593,1
1,16,3,1,2,0.743,1.32536483299918,0
1,17,1,2,1,0.665,1.75981191592291,0
1,18,2,2,2,0.714,1.82071100000758,1
1,19,3,1,2,0.773,1.44953395798802,0
1,20,2,1,2,0.562,1.01234170806129,0
1,21,1,2,1,0.655,1.46372950007208,0
1,22,2,1,2,0.732,2.19186287501361,0
1,23,1,1,2,0.501,1.95191716705449,0
1,24,3,1,1,0.697,1.45664166600909,1
1,25,3,1,1,0.792,1.16980408306699,1
1,26,2,2,2,0.693,1.49582779197954,1
1,27,2,1,2,0.514,3.56682712503243,0
1,28,2,1,2,0.703,2.23094683303498,0
1,29,3,1,1,0.712,1.79255833406933,1
1,30,2,2,2,0.502,1.80189979204442,1
1,31,1,2,2,0.504,0.958769374992698,1
1,32,2,1,2,0.504,1.14335337502416,0
1,33,1,2,2,0.691,1.89899191702716,1
1,34,1,1,2,0.511,1.23217974998988,0
1,35,3,2,2,0.701,1.26200295903254,1
1,36,1,2,2,0.501,1.87650600005873,1
1,37,3,2,2,0.794,1.41905479098205,1
1,38,3,1,1,0.713,1.5855367500335,1
1,39,2,1,1,0.501,2.00557487504557,1
1,40,2,2,1,0.844,1.66013279207982,0
1,41,2,2,2,0.716,1.50879391701892,1
1,42,2,1,2,0.643,2.52508437505458,0
1,43,1,2,2,0.583,2.80611254193354,1
1,44,3,1,1,0.503,2.31345562497154,1
1,45,1,2,1,0.731,1.73418312496506,0
1,46,1,2,2,0.503,1.95547725004144,1
1,47,2,1,1,0.736,1.42435924999882,1
1,48,3,2,1,0.714,1.96082279202528,0
1,49,3,2,2,0.82,1.39772966608871,1
1,50,3,1,2,0.812,2.3926758330781,0
1,1,2,2,2,0.814,1.77497816598043,1
1,2,3,1,1,0.505,2.13161883305293,1
1,3,1,1,2,0.629,1.93857791693881,0
1,4,3,1,1,0.762,1.32423870800994,1
1,5,3,2,2,0.74,1.35272879200056,1
1,6,3,2,2,0.795,1.04400466696825,1
1,7,2,1,1,0.702,1.35973554197699,1
1,8,3,2,2,0.503,1.87773175002076,1
1,9,3,2,2,0.822,1.14003391703591,1
1,10,3,1,1,0.779,1.13744012499228,1
1,11,1,2,1,0.501,2.5045788330026,0
1,12,3,2,2,0.898,1.83957499999087,1
1,13,1,1,2,0.702,1.26109166594688,0
1,14,1,1,2,0.698,1.12592562497593,0
1,15,1,2,2,0.835,1.17812129098456,1
1,16,2,2,2,0.788,1.18310012493748,1
1,17,2,2,2,0.792,1.05178450001404,1
1,18,2,1,1,0.827,1.37621191598009,1
1,19,3,1,1,0.685,2.60940604191273,1
1,20,2,2,1,0.726,1.19613487494644,0
1,21,2,1,2,0.503,2.39234504196793,0
1,22,2,2,2,0.816,1.2753458339721,1
1,23,3,1,1,0.697,1.19828883302398,1
1,24,3,2,2,0.512,1.68683991697617,1
1,25,3,1,1,0.788,1.75799091695808,1
1,26,2,1,1,0.623,1.88535250001587,1
1,27,3,2,2,0.736,1.26026345801074,1
1,28,3,1,1,0.853,1.10960908303969,1
1,29,1,2,1,0.917,3.14602654206101,0
1,30,1,1,1,0.528,2.41291100007948,1
1,31,3,2,1,0.572,2.02824412495829,0
1,32,1,2,2,0.504,2.08385383302812,1
1,33,2,1,2,0.504,3.11959695792757,0
1,34,1,2,2,0.804,1.34770362498239,1
1,35,2,1,1,0.711,1.1292905829614,1
1,36,1,1,2,0.848,1.12681775004603,0
1,37,2,2,2,0.872,1.25906345900148,1
1,38,2,2,1,0.82,1.57499187497888,0
1,39,3,1,1,0.727,0.972303832997568,1
1,40,3,1,2,0.813,1.23807616601698,0
1,41,2,2,2,0.866,0.952523667016067,1
1,42,1,1,1,0.725,1.63912970898673,1
1,43,3,2,2,0.861,0.997588333091699,1
1,44,2,2,2,0.617,1.37561704101972,1
1,45,1,1,2,0.831,1.55165050004143,0
1,46,1,1,1,0.883,1.29726445802953,1
1,47,3,2,2,0.839,1.14800995902624,1
1,48,1,2,2,0.502,1.44133991701528,1
1,49,2,1,2,0.504,1.1473354579648,0
1,50,1,1,1,0.572,1.11866379098501,1
1,1,3,2,2,0.773,1.40152612503152,1
1,2,1,1,1,0.622,1.14262270904146,1
1,3,2,2,1,0.69,1.12644779204857,0
1,4,1,1,1,0.706,1.07971883297432,1
1,5,1,2,2,0.712,1.02282787498552,1
1,6,2,2,1,0.832,0.999200957943685,0
1,7,1,2,1,0.691,2.23316683294252,0
1,8,2,2,2,0.741,1.04178579209838,1
1,9,3,2,2,0.505,2.6260452499846,1
1,10,2,2,2,0.658,1.74810170894489,1
1,11,2,1,1,0.5,1.87937383307144,1
1,12,3,2,2,0.76,1.32205162500031,1
1,13,2,1,1,0.628,1.31981370795984,1
1,14,2,2,2,0.502,1.7905935839517,1
1,15,1,1,2,0.504,1.21919508394785,0
1,16,2,1,2,0.505,1.08749737497419,0
1,17,1,2,2,0.505,1.43150604190305,1
1,18,3,1,1,0.809,1.28628008300439,1
1,19,1,1,2,0.83,3.12334149994422,0
1,20,1,2,1,0.769,1.40049483301118,0
1,21,1,2,1,0.823,1.35934712504968,0
1,22,2,1,2,0.817,1.55144033394754,0
1,23,2,2,1,0.861,1.33664383401629,0
1,24,1,1,1,0.665,1.06100224994589,1
1,25,1,2,1,0.703,0.913904124987312,0
1,26,1,2,2,0.747,1.3905562920263,1
1,27,1,2,2,0.504,1.93420983408578,1
1,28,3,1,1,0.78,1.75834199995734,1
1,29,1,1,2,0.503,2.03494425001554,0
1,30,3,1,1,0.727,0.998319208039902,1
1,31,3,2,1,0.784,1.13421529205516,0
1,32,3,2,2,0.503,2.30563908291515,1
1,33,2,1,2,0.501,1.14927491697017,0
1,34,2,1,1,0.644,1.01592258294113,1
1,35,1,1,1,0.871,1.56004633300472,1
1,36,1,2,1,0.594,2.00611004210077,0
1,37,1,2,1,0.74,1.72982679097913,0
1,38,3,1,1,0.788,1.59249041706789,1
1,39,1,1,1,0.501,2.41273291700054,1
1,40,1,1,2,0.501,1.59261475002859,0
1,41,1,1,2,0.502,1.2539848749293,0
1,42,2,2,1,0.703,2.55593062506523,0
1,43,3,1,1,0.792,2.58014600002207,1
1,44,3,1,1,0.804,3.05370312498417,1
1,45,2,2,2,0.773,2.16286658297759,1
1,46,2,2,2,0.77,1.52674558304716,1
1,47,2,1,2,0.502,1.81551837502047,0
1,48,1,1,2,0.772,1.3819341249764,0
1,49,2,2,2,0.762,1.24028808402363,1
1,50,2,1,2,0.63,0.95136737509165,0
1,1,2,2,2,0.709,16.1197017079685,1
1,2,1,2,2,0.66,1.3867200409295,1
1,3,3,2,2,0.872,1.17723387503065,1
1,4,2,2,2,0.777,1.28023770800792,1
1,5,1,2,2,0.883,1.02782370802015,1
1,6,3,1,2,0.911,0.90649825008586,0
1,7,1,2,2,0.845,1.48829500004649,1
1,8,2,1,2,0.67,1.30277008400299,0
1,9,1,2,1,0.722,1.85996770905331,0
1,10,2,2,2,0.736,1.04437537502963,1
1,11,3,1,2,0.501,2.16315720800776,0
1,12,1,2,1,0.503,1.48437075002585,0
1,13,1,1,2,0.698,1.00529658305459,0
1,14,3,1,1,0.657,2.1287833750248,1
1,15,1,2,1,0.708,1.23838875000365,0
1,16,1,1,1,0.678,1.05282345891465,1
1,17,1,2,2,0.783,1.03231587505434,1
1,18,2,2,2,0.671,1.07213387498632,1
1,19,1,1,1,0.501,1.8024459159933,1
1,20,2,2,1,0.675,2.16777320893016,0
1,21,1,1,2,0.663,2.55626429093536,0
1,22,2,2,2,0.762,1.12563541694544,1
1,23,1,1,1,0.71,1.75249054108281,1
1,24,3,1,1,0.695,2.46427179197781,1
1,25,2,2,2,0.65,1.43756387499161,1
1,26,1,1,1,0.501,1.71826191595756,1
1,27,3,2,2,0.651,1.27366883296054,1
1,28,3,2,2,0.593,2.39983779098839,1
1,29,2,1,2,0.501,2.35822762502357,0
1,30,1,1,1,0.678,2.36228999996092,1
1,31,2,2,1,0.674,1.70194304105826,0
1,32,2,1,1,0.674,0.814258166938089,1
1,33,2,1,2,0.506,2.43146804207936,0
1,34,3,2,2,0.743,1.08789929200429,1
1,35,2,1,1,0.5,1.70900191704277,1
1,36,3,1,1,0.5,1.38171270804014,1
1,37,2,1,1,0.5,0.825130334007554,1
1,38,1,2,1,0.5,0.758338707964867,0
1,39,1,1,1,0.668,2.42755316605326,1
1,40,3,2,2,0.505,1.93724541598931,1
1,41,1,1,2,0.501,4.56902654189616,0
1,42,3,2,1,0.614,4.03596312494483,0
1,43,1,2,1,0.627,2.30882529099472,0
1,44,1,1,2,0.744,1.38861137488857,0
1,45,2,1,2,0.503,2.98062729195226,0
1,46,2,2,2,0.751,1.16038016695529,1
1,47,2,2,1,0.634,1.8392338330159,0
1,48,2,2,1,0.5,2.0173652919475,0
1,49,1,1,1,0.5,1.6486870830413,1
1,50,1,2,1,0.5,1.8850323749939,0
1,1,2,1,2,0.681,1.96287908300292,0
1,2,1,1,1,0.577,1.83438758307602,1
1,3,3,2,2,0.501,1.57608016696759,1
1,4,2,2,2,0.627,1.18263791699428,1
1,5,2,1,1,0.617,1.6007090419298,1
1,6,3,1,2,0.502,2.36509000009391,0
1,7,2,2,2,0.502,1.52088758302853,1
1,8,3,2,2,0.502,1.57249183405656,1
1,9,2,2,2,0.602,1.85316366702318,1
1,10,2,2,1,0.711,1.30275333300233,0
1,11,1,2,1,0.501,2.71222354203928,0
1,12,3,1,2,0.772,1.22881837491877,0
1,13,1,1,2,0.759,1.10416487499606,0
1,14,2,1,2,0.508,1.76971116708592,0
1,15,2,1,1,0.891,1.11701337492559,1
1,16,1,1,1,0.785,1.19373170798644,1
1,17,2,2,1,0.771,1.1043821250787,0
1,18,3,2,1,0.696,1.7272957500536,0
1,19,1,1,2,0.881,1.16802854207344,0
1,20,2,1,2,0.508,1.77475608407985,0
1,21,3,2,2,0.835,0.949883916997351,1
1,22,3,2,2,0.793,1.3061714170035,1
1,23,2,2,2,0.822,2.07080604205839,1
1,24,2,2,2,0.931,1.64882770809345,1
1,25,3,1,1,0.821,1.38879724999424,1
1,26,2,1,1,0.843,1.35755441710353,1
1,27,2,1,1,0.682,1.07967383298092,1
1,28,1,1,2,0.836,1.38689025002532,0
1,29,1,2,2,0.691,2.65783716598526,1
1,30,3,2,2,0.762,1.43843312503304,1
1,31,2,2,2,0.577,1.63872229098342,1
1,32,3,2,2,0.83,1.11244574992452,1
1,33,2,1,1,0.782,1.31962079100776,1
1,34,1,2,2,0.547,1.33836208400317,1
1,35,2,2,2,0.595,1.52304154098965,1
1,36,3,1,1,0.59,3.53516816697083,1
1,37,1,1,1,0.782,1.19076799997129,1
1,38,1,2,1,0.726,1.26265966694336,0
1,39,2,1,1,0.808,1.4181857079966,1
1,40,2,2,2,0.954,1.59110216598492,1
1,41,3,2,2,0.861,0.90728095790837,1
1,42,1,2,1,0.744,1.25060554104857,0
1,43,1,1,1,0.741,1.67829783295747,1
1,44,1,1,2,0.723,1.29930329101626,0
1,45,2,2,1,0.974,1.11895375000313,0
1,46,2,1,1,0.76,1.4639540000353,1
1,47,1,1,2,0.714,1.06296083307825,0
1,48,1,2,2,0.502,1.96327175002079,1
1,49,2,1,2,0.724,1.22919195902068,0
1,50,3,1,1,0.705,1.02222116698977,1
1,1,3,1,2,0.741,2.14259616704658,0
1,2,2,2,1,0.811,1.77687025000341,0
1,3,3,1,1,0.828,0.992438832996413,1
1,4,2,2,2,0.675,0.836872500018217,1
1,5,2,2,2,0.508,1.70019287499599,1
1,6,3,2,2,0.734,0.940526208956726,1
1,7,3,1,1,0.5,2.23700825008564,1
1,8,3,2,2,0.718,1.10987966693938,1
1,9,2,2,2,0.718,0.670460291905329,1
1,10,1,2,1,0.66,1.62759225000627,0
1,11,2,2,1,0.626,1.33709612500388,0
1,12,1,2,2,0.807,0.935864792088978,1
1,13,1,2,1,0.564,1.12869150005281,0
1,14,1,2,2,0.628,1.02894625009503,1
1,15,3,2,2,0.82,1.06546520802658,1
1,16,3,2,2,0.742,0.913967040949501,1
1,17,1,1,1,0.571,1.12625170801766,1
1,18,1,1,2,0.625,0.85401629190892,0
1,19,1,2,2,0.544,1.62208741600625,1
1,20,3,1,1,0.658,0.98154629196506,1
1,21,1,2,1,0.702,1.1266017499147,0
1,22,2,1,1,0.657,1.39221087493934,1
1,23,1,2,2,0.687,1.34137154195923,1
1,24,2,1,1,0.758,0.991196500021033,1
1,25,2,2,2,0.501,1.93172987503931,1
1,26,2,1,1,0.809,0.821588541031815,1
1,27,1,1,1,0.772,1.03175524994731,1
1,28,1,2,2,0.746,1.19263445900287,1
1,29,2,1,2,0.859,0.967601625015959,0
1,30,1,1,1,0.696,1.17870883294381,1
1,31,2,1,1,0.887,0.951566666015424,1
1,32,1,1,2,0.597,1.36229212500621,0
1,33,2,1,1,0.677,1.21371570799965,1
1,34,2,1,1,0.743,0.849246499943547,1
1,35,2,1,1,0.772,1.01463570795022,1
1,36,3,2,2,0.744,1.51771495805588,1
1,37,3,1,1,0.683,2.98241708299611,1
1,38,1,2,2,0.895,1.19665887497831,1
1,39,1,2,1,0.501,2.33689200005028,0
1,40,2,2,2,0.673,1.01389520801604,1
1,41,1,1,1,0.745,1.05790345894638,1
1,42,1,2,2,0.657,1.95058654202148,1
1,43,2,1,1,0.768,1.31373787496705,1
1,44,1,1,1,0.867,0.966473125037737,1
1,45,1,2,2,0.841,0.968182708020322,1
1,46,2,2,2,0.63,1.24171125004068,1
1,47,3,2,1,0.847,1.00405312492512,0
1,48,2,2,2,0.817,1.07154508307576,1
1,49,2,1,1,0.84,1.18048720899969,1
1,50,3,2,2,0.785,1.36791537504178,1
1,1,1,1,1,0.61,1.90021629200783,1
1,2,3,2,2,0.788,0.790979249984957,1
1,3,2,2,2,0.841,0.616051499964669,1
1,4,2,1,1,0.821,0.962724082986824,1
1,5,3,2,2,0.893,0.801605958957225,1
1,6,1,1,2,0.642,1.03226887492929,0
1,7,1,2,2,0.619,1.21734508394729,1
1,8,1,2,1,0.708,1.15172700001858,0
1,9,2,2,1,0.802,1.21943591593299,0
1,10,3,1,1,0.759,1.08197795797605,1
1,11,3,1,1,0.784,0.848890124936588,1
1,12,3,1,1,0.683,0.952984208008274,1
1,13,2,1,1,0.828,1.0164455419872,1
1,14,2,2,2,0.687,1.23153204191476,1
1,15,1,2,2,0.501,2.96109533298295,1
1,16,2,1,1,0.723,1.14004408300389,1
1,17,1,1,2,0.741,1.68029391695745,0
1,18,1,2,1,0.727,1.02100337506272,0
1,19,3,2,1,0.509,1.88684491603635,0
1,20,3,2,2,0.695,0.893752000061795,1
1,21,1,1,2,0.939,0.904225416947156,0
1,22,2,2,2,0.817,0.913684083032422,1
1,23,2,1,1,0.801,1.24023374996614,1
1,24,1,1,1,0.685,1.10325024998747,1
1,25,3,2,2,0.506,1.60515499999747,1
1,26,1,2,2,0.501,1.62363974994514,1
1,27,3,1,2,0.737,1.61552237498108,0
1,28,1,2,2,0.708,3.89722454093862,1
1,29,2,1,1,0.675,1.20949275000021,1
1,30,3,2,2,0.781,1.20554308302235,1
1,31,1,2,2,0.771,1.97598391701467,1
1,32,1,2,2,0.79,1.10262324998621,1
1,33,3,2,2,0.864,1.02678879199084,1
1,34,2,2,2,0.898,0.91118341695983,1
1,35,2,2,2,0.802,1.02557587495539,1
1,36,1,1,1,0.729,1.4238823329797,1
1,37,1,1,1,0.785,1.81575966696255,1
1,38,3,1,1,0.839,1.06025829201099,1
1,39,2,1,2,0.82,1.38587925001048,0
1,40,2,2,2,0.729,1.63924283301458,1
1,41,1,1,1,0.837,1.39959929103497,1
1,42,1,1,1,0.761,1.26997733302414,1
1,43,1,2,2,0.71,2.31232987495605,1
1,44,3,1,1,0.697,1.19659537496045,1
1,45,1,1,1,0.501,2.00038258300629,1
1,46,3,2,2,1.021,0.990132874925621,1
1,47,2,2,2,0.876,0.959847540943883,1
1,48,2,2,2,0.787,0.935364667093381,1
1,49,3,1,1,0.839,2.07318750000559,1
1,50,3,2,1,0.642,2.69545916595962,0
1,1,1,1,2,0.736,3.95261479099281,0
1,2,1,2,1,0.767,1.21794062503614,0
1,3,3,1,1,0.647,0.893615916953422,1
1,4,3,2,2,0.708,0.714903000043705,1
1,5,1,2,2,0.793,0.888116999994963,1
1,6,1,2,2,0.881,0.872770791058429,1
1,7,1,1,1,0.774,1.13985908403993,1
1,8,1,1,1,0.749,1.27895504201297,1
1,9,3,1,1,0.805,1.07499154203106,1
1,10,2,1,2,0.501,2.53307695791591,0
1,11,2,1,1,0.749,1.20559804199729,1
1,12,3,2,2,0.743,1.07848974992521,1
1,13,1,2,2,0.849,0.824625874985941,1
1,14,1,2,2,0.849,0.666512083029374,1
1,15,3,1,1,0.789,1.58154112496413,1
1,16,2,2,2,0.882,1.21543558407575,1
1,17,2,2,2,0.878,0.946340707945637,1
1,18,2,2,2,0.793,0.993855041917413,1
1,19,1,1,1,0.754,1.19464762497228,1
1,20,1,2,2,0.787,1.22187595802825,1
1,21,2,2,2,0.845,0.792159041040577,1
1,22,3,1,2,0.792,0.632117082946934,0
1,23,2,1,1,0.786,1.07439787499607,1
1,24,3,2,2,0.621,0.931519708014093,1
1,25,2,2,2,0.713,0.855160624952987,1
1,26,3,2,2,0.838,0.869090040912852,1
1,27,1,1,2,0.799,0.863362874952145,0
1,28,2,2,2,0.799,0.578918874962255,1
1,29,1,1,2,0.835,0.893303457996808,0
1,30,3,1,1,0.789,1.2257742920192,1
1,31,3,2,2,0.683,0.992335624992847,1
1,32,1,2,2,0.79,0.900063041946851,1
1,33,2,2,2,0.692,1.74537045799661,1
1,34,1,1,2,0.74,0.949954582960345,0
1,35,1,1,1,0.805,1.11348762502894,1
1,36,3,2,2,0.95,0.941206792020239,1
1,37,2,1,1,0.902,1.23071975004859,1
1,38,3,1,1,0.894,1.04612733295653,1
1,39,3,2,2,0.891,1.67791866697371,1
1,40,3,2,2,0.946,1.05484025005717,1
1,41,2,2,2,0.926,1.05949804198463,1
1,42,2,1,2,0.886,5.46455124998465,0
1,43,3,1,2,0.792,1.25921720801853,0
1,44,2,1,1,0.855,1.42236037494149,1
1,45,1,2,2,0.769,1.47848941595294,1
1,46,3,2,2,0.504,1.83666904096026,1
1,47,3,1,1,0.806,1.11571208399255,1
1,48,3,2,2,0.895,1.93589691596571,1
1,49,1,2,2,0.836,1.08631666691508,1
1,50,3,2,2,0.887,1.19215387490112,1
1,1,3,2,2,0.743,45.7971109159989,1
1,2,3,2,2,0.748,0.803730749990791,1
1,3,3,2,2,0.753,0.509946457925253,1
1,4,1,2,2,0.753,0.493670125026256,1
1,5,2,2,2,0.83,0.89650979207363,1
1,6,1,2,2,0.752,1.13178641593549,1
1,7,2,1,1,0.953,1.00000091700349,1
1,8,1,2,1,0.659,2.19934008293785,0
1,9,2,2,2,0.828,0.974228749983013,1
1,10,2,2,2,0.836,0.96786350000184,1
1,11,2,1,1,0.502,1.69629999995232,1
1,12,3,1,1,0.727,2.2157162920339,1
1,13,1,1,2,0.625,1.22003787499852,0
1,14,3,2,2,0.759,1.87455449998379,1
1,15,1,2,2,0.768,1.29358316597063,1
1,16,1,1,2,0.504,2.3346569170244,0
1,17,2,1,2,0.504,1.51853175007273,0
1,18,2,2,2,0.868,1.22232141706627,1
1,19,2,1,2,1.012,1.34358420805074,0
1,20,3,2,2,0.752,1.24152995902114,1
1,21,2,2,1,0.754,2.11075137509033,0
1,22,2,1,1,0.754,0.833245833986439,1
1,23,1,2,1,0.658,0.727163166971877,0
1,24,1,1,1,0.501,2.71874166710768,1
1,25,3,1,2,0.733,1.05275787506253,0
1,26,1,1,2,0.755,3.35223570803646,0
1,27,1,2,1,0.682,1.35839995904826,0
1,28,2,1,2,0.831,0.927214791998267,0
1,29,3,2,2,0.748,1.85126916703302,1
1,30,3,2,2,0.915,0.92678504192736,1
1,31,3,1,1,0.731,2.36281745799351,1
1,32,3,1,1,0.705,1.13004974997602,1
1,33,2,2,2,0.845,1.28188516700175,1
1,34,3,1,1,0.833,1.43289787496906,1
1,35,3,2,2,0.885,1.05408041691408,1
1,36,3,2,2,1.042,1.09861874999478,1
1,37,3,1,1,0.979,1.08800445799716,1
1,38,1,2,2,0.598,1.61496912501752,1
1,39,3,1,1,0.7,1.67711149994284,1
1,40,1,2,2,0.731,1.49466170789674,1
1,41,1,1,1,0.692,1.62106595793739,1
1,42,2,2,2,0.704,0.900503791053779,1
1,43,3,2,2,0.784,0.911784083000384,1
1,44,1,2,1,0.606,1.12035416706931,0
1,45,1,2,2,0.674,0.955272500053979,1
1,46,2,1,1,0.87,1.19712041702587,1
1,47,3,2,2,0.809,1.07473954197485,1
1,48,2,2,2,0.763,0.640592959010974,1
1,49,2,2,2,0.827,1.03432162501849,1
1,50,1,1,1,0.903,1.0802205420332,1
1,1,2,2,1,0.716,1.55130408308469,0
1,2,1,2,2,0.756,1.04938104201574,1
1,3,2,2,2,0.686,1.09613641595934,1
1,4,2,1,2,0.772,1.02003095904365,0
1,5,1,2,2,0.687,0.986435457947664,1
1,6,3,2,2,0.716,0.927010832936503,1
1,7,3,2,2,0.841,0.966485042008571,1
1,8,1,1,1,0.715,1.90453058294952,1
1,9,3,1,2,0.501,2.48693762510084,0
1,10,2,1,1,0.8,1.14447075000498,1
1,11,1,1,1,0.817,0.966721959062852,1
1,12,2,2,2,0.858,1.08066391700413,1
1,13,3,2,2,0.858,0.760651999968104,1
1,14,1,1,2,0.851,0.823340000002645,0
1,15,3,2,2,0.851,0.811038665939122,1
1,16,1,2,2,0.861,0.962120415992104,1
1,17,2,1,1,0.863,1.39329683303367,1
1,18,2,1,2,0.774,1.09160579205491,0
1,19,2,1,1,0.757,1.06979704194237,1
1,20,1,2,2,0.877,1.26587966596708,1
1,21,1,1,2,0.862,0.935598584008403,0
1,22,3,2,2,0.813,0.946207750006579,1
1,23,2,1,1,0.617,1.29610658297315,1
1,24,2,2,2,0.61,0.727167750010267,1
1,25,3,2,2,0.78,0.629150499938987,1
1,26,1,1,2,0.634,1.17635516694281,0
1,27,2,2,2,0.777,1.07230274996255,1
1,28,2,1,1,0.893,0.857909125043079,1
1,29,3,1,2,0.782,0.961394708021544,0
1,30,2,2,2,0.789,0.977507208008319,1
1,31,1,2,1,0.793,1.14666008308996,0
1,32,1,1,1,0.853,0.986362625029869,1
1,33,3,1,1,0.865,0.885629541007802,1
1,34,2,1,1,0.886,0.970584459020756,1
1,35,2,2,2,0.775,1.05876845808234,1
1,36,1,1,1,0.67,1.23893845803104,1
1,37,1,2,2,0.773,0.943318040925078,1
1,38,2,1,1,0.5,3.66133712499868,1
1,39,1,1,1,0.751,1.75103195791598,1
1,40,2,2,2,0.864,1.07690312503837,1
1,41,3,1,1,0.821,0.963965624920093,1
1,42,1,1,1,0.821,0.653500917018391,1
1,43,1,1,1,0.821,0.847420333069749,1
1,44,1,1,1,0.821,0.655184084083885,1
1,45,1,2,2,0.857,1.11392745899502,1
1,46,2,1,2,0.779,1.21576033404563,0
1,47,2,2,2,0.776,2.16234962490853,1
1,48,2,1,1,0.824,1.75705804198515,1
1,49,3,1,1,0.824,0.583399957977235,1
1,50,2,1,1,0.868,1.02974779205397,1
1,1,2,1,1,0.717,1.15509166696575,1
1,2,1,2,1,0.784,1.88132308295462,0
1,3,1,2,2,0.849,0.846127707976848,1
1,4,2,1,1,0.754,1.12615604198072,1
1,5,1,1,2,0.787,0.889597082976252,0
1,6,1,1,1,0.872,1.24268587504048,1
1,7,3,2,2,0.829,1.19250729202759,1
1,8,2,1,2,0.722,0.761055332957767,0
1,9,3,1,2,0.722,0.740374666987918,0
1,10,1,2,2,0.722,0.81604075001087,1
1,11,1,1,1,0.754,1.04977441590745,1
1,12,1,1,1,0.5,1.76080762501806,1
1,13,1,2,2,0.944,0.859851625049487,1
1,14,3,2,2,0.816,0.731631083996035,1
1,15,2,1,2,0.503,3.51748758403119,0
1,16,3,1,2,0.911,0.963261708035134,0
1,17,3,2,2,0.811,0.747014124994166,1
1,18,3,1,1,0.934,1.2065233750036,1
1,19,1,2,2,0.8,1.16191379202064,1
1,20,3,2,2,0.788,0.828108332934789,1
1,21,2,1,1,0.709,1.80917866691016,1
1,22,1,2,2,0.614,1.05851795803756,1
1,23,1,2,2,0.748,0.80110662500374,1
1,24,1,1,2,0.802,0.849275791086257,0
1,25,1,2,2,0.798,0.686923750094138,1
1,26,3,2,2,0.8,0.737062250031158,1
1,27,2,1,1,0.621,1.0068637089571,1
1,28,2,2,2,0.836,1.01823587494437,1
1,29,2,2,2,0.753,0.880420958041213,1
1,30,1,2,2,0.841,0.8155837910017,1
1,31,1,2,2,0.828,0.61979320901446,1
1,32,1,1,2,0.828,0.818957832991146,0
1,33,2,2,1,0.788,1.81779254192952,0
1,34,3,1,2,0.839,1.44138937501702,0
1,35,3,2,2,0.818,0.820092749898322,1
1,36,3,2,2,0.874,0.77485358400736,1
1,37,1,1,1,0.632,0.913643624982797,1
1,38,3,2,2,0.666,0.820187666919082,1
1,39,3,2,2,0.781,0.798147791065276,1
1,40,2,2,1,0.697,1.38633283402305,0
1,41,3,2,2,0.836,0.934592540957965,1
1,42,2,1,1,0.738,1.45665379101411,1
1,43,3,1,1,0.895,1.05054866697174,1
1,44,3,2,2,1.157,0.95417375001125,1
1,45,1,2,2,0.767,1.03800433303695,1
1,46,2,1,1,0.667,1.1639050419908,1
1,47,3,2,2,0.699,0.873879957944155,1
1,48,1,1,1,1,0.943786542047746,1
1,49,3,1,1,1,1.04740745795425,1
1,50,2,1,2,0.849,1.5909035410732,0
1,1,1,2,2,0.654,3.98034037498292,1
1,2,1,1,1,0.831,1.26286895794328,1
1,3,2,2,1,0.842,1.29592441604473,0
1,4,1,2,2,0.658,0.937954000080936,1
1,5,2,2,2,0.813,0.883762792102061,1
1,6,3,2,2,0.875,0.864050959004089,1
1,7,2,2,2,0.834,0.609880708041601,1
1,8,1,2,1,0.501,2.36958087491803,0
1,9,2,2,2,0.912,1.1134290000191,1
1,10,2,2,2,0.717,0.900160082965158,1
1,11,1,2,2,0.717,0.612822541967034,1
1,12,1,1,2,0.739,0.995132874930277,0
1,13,3,2,2,0.739,0.711713332915679,1
1,14,1,1,2,0.739,1.14165641693398,0
1,15,3,1,1,0.757,1.28373266698327,1
1,16,1,1,1,0.858,0.713139374973252,1
1,17,3,1,1,0.857,0.573485916014761,1
1,18,1,1,1,0.771,1.16083595901728,1
1,19,3,1,1,0.777,0.683346958016045,1
1,20,2,1,1,0.762,0.566328708897345,1
1,21,1,2,1,0.762,0.642205541022122,0
1,22,1,2,2,0.503,1.85637579194736,1
1,23,2,2,1,0.754,1.18674162507523,0
1,24,3,1,1,0.642,1.14308475004509,1
1,25,3,2,2,0.822,1.2346124589676,1
1,26,3,2,1,0.743,1.67249029199593,0
1,27,2,1,1,0.776,0.927960083005019,1
1,28,2,2,1,0.724,1.50384937506169,0
1,29,1,2,2,0.761,1.64482899999712,1
1,30,2,1,1,0.59,1.03840737510473,1
1,31,1,1,1,0.735,1.28813450003508,1
1,32,3,1,1,0.824,0.964013249962591,1
1,33,2,2,1,0.781,0.690149958012626,0
1,34,1,2,2,0.51,1.88913141691592,1
1,35,1,2,1,0.666,2.30249195895158,0
1,36,2,1,1,0.712,1.42848825000692,1
1,37,2,1,1,0.8,0.82334258290939,1
1,38,2,1,1,0.764,0.686786083038896,1
1,39,3,2,1,0.764,0.650848416960798,0
1,40,3,1,1,0.764,0.715670582954772,1
1,41,3,2,2,0.711,1.27257729205303,1
1,42,3,2,1,0.829,2.53604437503964,0
1,43,1,2,2,0.501,2.80208212509751,1
1,44,1,2,2,0.596,1.77304500003811,1
1,45,2,1,1,0.715,2.24358579202089,1
1,46,3,2,1,0.715,0.817301749950275,0
1,47,3,1,1,0.672,1.82389429199975,1
1,48,2,1,1,0.713,1.55100637499709,1
1,49,2,1,1,0.803,0.963968875003047,1
1,50,1,1,1,0.802,1.46699899993837,1
1,1,1,1,2,0.712,1.3809776250273,0
1,2,3,2,2,1.203,0.812903666985221,1
1,3,1,2,2,0.846,0.737138667027466,1
1,4,3,2,2,0.7,0.527862458024174,1
1,5,2,2,2,0.765,0.918003958067857,1
1,6,3,2,2,0.776,0.523586749914102,1
1,7,1,1,1,0.867,1.31324425002094,1
1,8,1,2,2,0.79,0.948959833942354,1
1,9,1,1,1,0.779,1.27153675002046,1
1,10,3,1,1,0.704,0.872092459001578,1
1,11,3,2,2,0.834,1.32718658307567,1
1,12,3,1,1,0.745,1.35016458400059,1
1,13,1,1,1,0.79,1.40602479199879,1
1,14,2,2,2,0.78,1.3982355829794,1
1,15,2,2,1,0.733,1.0077351660002,0
1,16,2,1,1,0.802,0.97650099999737,1
1,17,1,1,1,0.704,0.926822250010446,1
1,18,3,1,1,0.734,0.879367000074126,1
1,19,1,2,1,0.734,0.744061792036518,0
1,20,3,2,2,0.992,1.00872441602405,1
1,21,2,1,1,0.856,0.936154542025179,1
1,22,2,2,1,0.771,1.29100962495431,0
1,23,2,1,1,0.811,1.61505258304533,1
1,24,3,1,1,0.612,2.08159783296287,1
1,25,3,2,1,0.668,1.85364612506237,0
1,26,1,1,1,0.809,2.43948675005231,1
1,27,1,2,1,0.757,0.866708124987781,0
1,28,2,1,1,0.754,0.786045832908712,1
1,29,3,1,1,0.502,1.81480129098054,1
1,30,1,2,2,0.748,1.79548000008799,1
1,31,2,1,1,0.74,1.67917195800692,1
1,32,1,1,1,0.742,0.847810875042342,1
1,33,1,1,1,0.761,0.97740212501958,1
1,34,1,1,1,0.837,1.22037137509324,1
1,35,2,2,1,0.98,1.07917445804924,0
1,36,2,2,1,0.861,1.0560229170369,0
1,37,1,2,2,1.008,1.21377199993003,1
1,38,1,2,1,0.588,1.20682841702364,0
1,39,2,2,1,0.645,1.22931895789225,0
1,40,2,1,2,0.509,1.18006412510294,0
1,41,3,1,1,0.669,1.30735141702462,1
1,42,1,1,1,0.742,1.11151787498966,1
1,43,3,1,2,0.722,2.8400183749618,0
1,44,2,2,2,0.502,1.83679695799947,1
1,45,2,1,1,0.793,1.52380533306859,1
1,46,1,1,1,0.808,1.30531158298254,1
1,47,3,1,1,0.798,1.0479778329609,1
1,48,2,1,1,0.827,1.49901566596236,1
1,49,1,2,1,0.824,1.20035033300519,0
1,50,1,1,1,0.823,0.893086916999891,1
1,1,1,2,2,0.747,1.53747179103084,1
1,2,1,2,2,0.769,1.381396291079,1
1,3,2,2,2,0.818,0.893284666002728,1
1,4,1,2,1,0.793,1.0719072080683,0
1,5,2,2,2,0.768,0.956518541905098,1
1,6,3,1,2,0.836,0.686319457949139,0
1,7,1,2,2,0.819,0.585981708019972,1
1,8,1,1,1,0.849,1.16756741702557,1
1,9,1,1,2,0.767,0.931587875005789,0
1,10,3,2,2,0.855,1.02298729203176,1
1,11,2,1,1,0.847,1.04024383309297,1
1,12,3,1,1,0.848,1.02461420791224,1
1,13,2,2,2,0.811,1.00851683306973,1
1,14,1,1,1,0.769,0.870990958996117,1
1,15,2,1,1,1,1.57916020799894,1
1,16,1,2,2,0.752,0.999179125064984,1
1,17,2,2,2,0.845,0.791817542049102,1
1,18,3,2,2,0.788,0.564405750017613,1
1,19,1,2,2,0.788,0.581932833069004,1
1,20,3,1,2,0.788,0.840674749924801,0
1,21,1,2,2,0.788,0.585032582981512,1
1,22,3,1,1,0.664,1.06154983304441,1
1,23,2,2,2,0.735,0.991302917012945,1
1,24,1,2,2,0.868,0.761240583029576,1
1,25,1,1,2,0.786,9.24845179205295,0
1,26,3,2,2,0.786,0.599918749998324,1
1,27,3,1,1,0.814,1.27962704189122,1
1,28,3,1,2,0.912,1.07673987501767,0
1,29,1,2,1,0.787,0.871819041087292,0
1,30,1,1,2,0.981,0.857481417013332,0
1,31,2,2,2,0.743,0.616355000063777,1
1,32,2,2,2,0.743,0.550251708016731,1
1,33,1,1,2,0.818,0.874923957977444,0
1,34,3,1,1,0.696,1.29922099993564,1
1,35,1,1,2,0.729,0.846820292063057,0
1,36,1,1,1,0.914,0.85695000004489,1
1,37,3,2,2,0.818,1.13314320798963,1
1,38,3,2,2,0.698,2.01572870800737,1
1,39,1,1,2,0.698,0.71496000001207,0
1,40,3,1,1,0.848,0.802077999920584,1
1,41,3,2,2,0.731,0.922966000041924,1
1,42,1,1,2,0.728,0.583634334034286,0
1,43,3,1,1,0.831,0.982108458993025,1
1,44,3,1,1,0.73,0.795730208046734,1
1,45,3,2,2,0.775,1.1288303330075,1
1,46,2,1,2,0.772,1.20654012507293,0
1,47,1,1,2,0.772,1.07039254100528,0
1,48,1,1,1,0.5,1.6332995420089,1
1,49,1,1,2,0.645,1.74748720903881,0
1,50,2,1,1,0.957,0.924623665981926,1
3,1,1,1,1,0.771,1.27949712500003,1
3,2,1,2,2,0.648,1.51534183300009,1
3,3,2,1,2,0.694,1.27310720800006,0
3,4,1,1,1,0.949,1.05482079100011,1
3,5,1,1,1,0.824,1.04739408300009,1
3,6,3,1,1,0.768,1.13011508300008,1
3,7,2,1,1,0.943,1.001856084,1
3,8,1,2,2,0.8,1.090586917,1
3,9,2,1,1,0.746,1.12142795800003,1
3,10,1,1,2,0.65,2.92441566700006,0
3,11,1,2,1,0.66,1.04933429199991,0
3,12,3,2,2,0.686,1.24718816699999,1
3,13,1,1,2,0.824,2.2422254999999,0
3,14,2,1,1,0.936,1.15031829200007,1
3,15,3,2,2,0.711,1.11897533400008,1
3,16,1,1,1,0.803,1.05768775000001,1
3,17,1,2,2,0.605,2.58489491700004,1
3,18,2,2,2,0.505,2.39659949999998,1
3,19,1,2,1,0.615,1.00898625000002,0
3,20,1,2,1,0.505,2.05713741699992,0
3,21,1,1,2,0.608,2.21254054100007,0
3,22,3,1,1,0.594,2.14482587500004,1
3,23,3,1,1,0.768,0.98325279200003,1
3,24,1,2,2,0.614,1.49057616699997,1
3,25,3,1,1,0.989,0.937478959000032,1
3,26,3,2,1,0.687,2.024906708,0
3,27,3,1,1,0.633,0.93677608400003,1
3,28,2,1,1,0.838,0.851073458000087,1
3,29,2,2,2,0.64,1.83616804200005,1
3,30,2,1,1,0.746,1.05764083299994,1
3,31,1,2,1,0.656,2.03999679200001,0
3,32,2,2,2,0.76,1.020013167,1
3,33,1,1,1,0.866,1.25087204200008,1
3,34,3,1,1,0.866,0.773581125000078,1
3,35,3,2,1,0.866,0.736203040999953,0
3,36,1,2,1,0.697,1.49561229200003,0
3,37,1,1,2,0.603,1.950516333,0
3,38,3,2,2,0.79,2.00860379099993,1
3,39,1,1,2,0.637,1.26958383299996,0
3,40,2,2,2,0.75,1.02644862499994,1
3,41,1,1,1,0.813,1.21301054100002,1
3,42,2,2,2,0.746,1.32151341699989,1
3,43,3,2,2,0.897,0.981658374999938,1
3,44,1,2,2,0.724,1.09544950000009,1
3,45,1,2,2,0.619,0.970946125000069,1
3,46,1,2,2,0.721,1.04890341599992,1
3,47,1,1,1,0.689,1.07060479100005,1
3,48,2,1,1,0.77,0.930592417000071,1
3,49,1,2,2,0.769,1.02656887500007,1
3,50,1,2,1,0.853,1.12050141700001,0
3,1,3,2,2,0.926,1.40508954200004,1
3,2,1,2,1,0.914,1.33637316699992,0
3,3,2,2,2,0.631,1.12921137499995,1
3,4,2,1,1,0.783,1.19187575000001,1
3,5,3,2,2,0.746,0.977140250000048,1
3,6,1,1,1,0.844,1.03798020800002,1
3,7,3,2,1,0.584,1.67795625000008,0
3,8,1,2,2,0.568,1.28864854200003,1
3,9,1,2,2,0.673,1.838203916,1
3,10,1,1,1,0.725,1.02362004199995,1
3,11,2,1,1,0.818,0.831047042000023,1
3,12,2,1,1,0.923,1.027233583,1
3,13,1,2,2,0.835,1.37060354200003,1
3,14,1,2,1,0.753,1.54373783300002,0
3,15,1,2,2,0.654,1.01413941600003,1
3,16,3,2,2,0.786,0.898039166999979,1
3,17,1,1,1,0.84,1.20298533300002,1
3,18,1,2,2,0.613,1.96810662500002,1
3,19,2,2,1,0.73,1.03752454200003,0
3,20,2,2,2,0.613,0.988109000000009,1
3,21,2,1,1,0.685,1.15360850000002,1
3,22,1,2,1,0.617,1.70746433299996,0
3,23,2,2,2,0.681,0.989060124999924,1
3,24,2,1,1,0.83,0.888778415999923,1
3,25,1,1,1,0.687,0.937234375000003,1
3,26,1,1,1,0.687,1.36338749999993,1
3,27,2,1,2,0.619,2.02866679199997,0
3,28,2,1,1,0.631,1.25993891600001,1
3,29,3,1,1,0.836,0.994208416999982,1
3,30,2,1,1,0.836,0.646433249999973,1
3,31,1,2,2,0.715,1.13633679200007,1
3,32,1,1,1,0.683,2.74756212500006,1
3,33,2,1,1,0.958,1.357893042,1
3,34,3,1,1,0.631,1.69599687499999,1
3,35,1,2,1,0.834,0.974543709000045,0
3,36,2,2,1,0.618,1.46594241599996,0
3,37,3,2,2,0.506,1.5830575,1
3,38,3,2,2,0.631,2.29389891699998,1
3,39,1,1,1,0.637,1.037329,1
3,40,2,1,1,0.774,1.08198637500004,1
3,41,1,2,2,0.591,1.36940583299997,1
3,42,3,2,2,0.67,0.846677666000005,1
3,43,1,1,1,0.537,1.70383937499992,1
3,44,3,1,1,0.776,1.68027408299997,1
3,45,2,2,2,0.776,1.01360745800002,1
3,46,1,1,2,0.616,2.00850204199992,0
3,47,1,2,2,0.776,0.952908750000006,1
3,48,3,1,1,0.591,1.30964966699992,1
3,49,2,2,2,0.839,1.20771200000001,1
3,50,3,1,1,0.552,1.46456724999996,1
3,1,3,1,1,0.736,1.09067591600001,1
3,2,3,2,1,0.85,0.802650084000106,0
3,3,3,1,1,0.722,0.8281475,1
3,4,2,2,2,1.032,1.26645474999998,1
3,5,2,2,2,0.85,1.08579574999999,1
3,6,3,1,1,0.995,0.999488124999971,1
3,7,2,1,1,0.699,0.906154915999878,1
3,8,1,2,2,0.917,1.17631391700002,1
3,9,3,1,1,0.874,1.13579295800014,1
3,10,3,1,1,0.813,0.978341875000069,1
3,11,1,1,1,0.689,1.33882620899999,1
3,12,2,1,1,0.853,0.79983229100003,1
3,13,3,2,2,0.79,1.07255562500018,1
3,14,2,2,1,0.713,1.37908195799992,0
3,15,1,1,2,0.533,1.43071758299993,0
3,16,3,2,2,0.883,0.921663999999964,1
3,17,3,1,1,0.955,1.011417209,1
3,18,1,2,1,0.627,1.21030325000015,0
3,19,1,1,1,0.779,0.867571334000104,1
3,20,2,2,2,0.726,1.18599020800002,1
3,21,2,2,2,0.81,0.826347124999984,1
3,22,2,1,1,0.675,1.08140549999985,1
3,23,2,2,2,0.847,0.982788041000049,1
3,24,3,1,1,0.743,1.16208825000012,1
3,25,3,2,2,0.79,0.925500833000115,1
3,26,2,1,1,0.63,1.73913708400005,1
3,27,2,1,1,0.707,1.31110295900021,1
3,28,2,2,2,0.792,1.0894767499999,1
3,29,2,2,2,1.032,0.928612165999994,1
3,30,3,1,1,0.65,1.58592479200001,1
3,31,2,1,1,0.756,0.928084874999968,1
3,32,2,1,2,0.799,1.36667858299984,0
3,33,1,1,1,0.698,1.07193512499998,1
3,34,2,1,2,0.725,0.978111207999973,0
3,35,1,1,1,0.928,0.919517209000105,1
3,36,1,2,2,0.761,0.946337416000006,1
3,37,3,2,2,0.917,0.944682292000152,1
3,38,3,2,2,0.636,1.20698987500009,1
3,39,3,2,2,0.931,1.00790675000007,1
3,40,1,1,1,0.753,1.03494670800001,1
3,41,1,2,2,0.869,1.05961375000015,1
3,42,2,1,1,0.538,3.9974467080001,1
3,43,1,1,2,0.65,1.44980466700008,0
3,44,2,1,1,0.501,1.66694299999995,1
3,45,3,1,1,0.689,0.998465000000124,1
3,46,3,1,1,0.849,1.02246245900005,1
3,47,3,1,1,0.942,1.20906725000009,1
3,48,3,2,2,0.904,1.11010062500009,1
3,49,3,1,1,0.86,1.20917254100004,1
3,50,2,2,1,0.675,1.27604724999992,0
3,1,3,2,2,0.9,2.26883837500009,1
3,2,3,1,1,0.848,0.940964749999921,1
3,3,3,1,1,0.934,1.02419608399987,1
3,4,3,2,2,0.929,0.977522666999903,1
3,5,1,2,2,0.813,0.835769624999784,1
3,6,3,1,1,0.914,0.932890208999879,1
3,7,3,2,2,0.91,1.0091684580002,1
3,8,2,1,1,0.778,0.955679416999828,1
3,9,1,1,1,0.656,1.45494729099983,1
3,10,2,1,1,0.896,1.01054187500017,1
3,11,2,2,2,0.978,1.02213245799999,1
3,12,2,1,2,0.786,1.0244963749999,0
3,13,2,2,1,0.579,1.39431791600009,0
3,14,1,1,2,0.604,1.24729887500007,0
3,15,2,2,2,0.698,0.840987334000147,1
3,16,1,1,2,0.863,1.04594204199998,0
3,17,2,1,1,0.646,1.06616770799997,1
3,18,3,1,1,0.86,1.09664704200009,1
3,19,2,1,1,0.99,0.974245999999994,1
3,20,2,1,1,0.843,0.939097959000037,1
3,21,3,1,1,0.951,0.799483624999993,1
3,22,2,2,1,0.951,1.03768270899991,0
3,23,3,1,1,0.747,0.972819791999882,1
3,24,1,2,1,0.839,1.29437412499988,0
3,25,3,1,1,0.9,1.23005162499999,1
3,26,3,1,1,0.926,1.09471929199981,1
3,27,3,1,1,0.998,0.954237417000058,1
3,28,2,2,2,0.599,2.44102750000002,1
3,29,1,2,2,0.729,0.843287916999998,1
3,30,2,2,2,0.954,0.938394541999969,1
3,31,3,1,1,0.775,1.13404479200017,1
3,32,2,2,2,0.622,1.00557479199983,1
3,33,3,2,2,0.822,1.47241837499996,1
3,34,1,2,1,0.845,1.25914520800006,0
3,35,2,2,2,0.504,3.05536270799985,1
3,36,1,2,2,0.598,2.22393858300006,1
3,37,1,2,1,0.643,2.85629266700016,0
3,38,3,1,1,0.812,0.905161500000077,1
3,39,1,1,2,0.604,1.6111182090001,0
3,40,2,1,1,0.696,1.32729516599989,1
3,41,1,1,1,0.893,1.02153470799999,1
3,42,1,2,1,0.873,1.15276425000002,0
3,43,3,2,2,0.594,1.12369258300009,1
3,44,2,2,2,0.794,1.15151087499999,1
3,45,3,1,1,0.833,1.12139829200009,1
3,46,2,1,1,0.941,0.982313833000035,1
3,47,3,2,2,0.884,1.36165904199993,1
3,48,1,2,2,0.945,1.26607912500003,1
3,49,1,2,1,0.959,1.00399733300014,0
3,50,2,2,2,0.925,1.03343462499993,1
3,1,3,1,1,0.829,1.04275854199977,1
3,2,3,1,1,0.634,1.59975491699993,1
3,3,2,1,2,0.606,1.70401874999993,0
3,4,3,1,1,0.743,1.19972412499988,1
3,5,3,1,1,0.864,0.918289499999901,1
3,6,1,2,2,0.821,1.28951420800013,1
3,7,2,1,1,0.78,1.15303033300006,1
3,8,3,2,2,0.931,0.992717625000068,1
3,9,3,2,2,0.955,1.02465395800004,1
3,10,1,1,2,0.596,2.12373537500002,0
3,11,2,1,1,0.629,1.51729208300003,1
3,12,1,2,2,0.651,1.24735587500004,1
3,13,3,2,2,0.881,1.31976329100007,1
3,14,2,1,2,0.655,1.25224920799997,0
3,15,3,1,1,0.686,1.27233187499996,1
3,16,2,1,2,0.547,1.69419970799981,0
3,17,3,2,2,0.58,1.87426920799999,1
3,18,1,2,1,0.977,1.53490187500006,0
3,19,1,2,2,0.83,1.25313116699999,1
3,20,1,2,1,0.945,1.16733537499999,0
3,21,2,1,1,0.62,2.11124954100001,1
3,22,3,2,2,0.6,1.74333583299995,1
3,23,2,2,2,0.588,1.68625066699997,1
3,24,2,1,2,0.67,0.912430542000038,0
3,25,2,2,2,0.794,1.10576433300002,1
3,26,3,1,1,0.774,1.49663916700001,1
3,27,2,2,2,0.718,1.07043366700009,1
3,28,1,2,2,0.632,1.40358745799995,1
3,29,2,1,1,0.78,0.958730833000118,1
3,30,2,2,2,0.672,0.961168041999827,1
3,31,2,2,1,0.675,1.06927466699995,0
3,32,3,1,1,0.876,0.856255541999872,1
3,33,1,1,1,0.961,1.37441154099997,1
3,34,1,1,1,0.71,0.908905167000057,1
3,35,2,2,1,0.549,2.49031333300013,0
3,36,2,2,2,0.802,1.013132541,1
3,37,1,1,1,0.644,0.786068375000013,1
3,38,1,1,1,0.778,1.08144850000008,1
3,39,2,1,1,0.845,0.968917166999972,1
3,40,2,2,1,0.674,1.07967012500012,0
3,41,2,2,2,0.868,1.03633595799988,1
3,42,3,2,2,0.937,1.15641416700009,1
3,43,1,1,2,0.886,0.949721167000007,0
3,44,3,1,1,0.592,1.74885091700003,1
3,45,1,2,2,0.655,1.33543875000009,1
3,46,1,2,2,0.826,0.92482779199986,1
3,47,3,1,1,0.724,1.00274979100004,1
3,48,2,2,2,0.784,1.01536829199995,1
3,49,2,1,1,0.594,1.37987449999991,1
3,50,1,2,1,0.823,0.981713500000069,0
3,1,1,2,2,0.833,1.35160666699994,1
3,2,2,2,2,0.896,0.790447207999932,1
3,3,3,2,2,0.955,0.718039417,1
3,4,2,2,2,0.962,0.738845625000067,1
3,5,2,2,2,0.622,2.3372589170001,1
3,6,2,1,1,0.635,0.82594425000002,1
3,7,1,1,2,0.662,0.904354332999901,0
3,8,3,2,2,0.794,0.968378750000056,1
3,9,1,2,2,0.926,0.875013915999943,1
3,10,1,2,2,0.631,2.44791104199999,1
3,11,3,1,1,0.817,0.85250474999998,1
3,12,2,2,2,0.838,0.855215917000123,1
3,13,3,2,2,0.978,0.848210041000129,1
3,14,3,1,1,0.931,0.873597209000081,1
3,15,1,1,2,0.584,0.992088707999983,0
3,16,1,2,2,0.564,1.18686312499995,1
3,17,1,2,2,0.756,1.0631074580001,1
3,18,3,2,2,0.895,0.897379000000001,1
3,19,2,2,2,0.966,1.19153570799995,1
3,20,3,1,1,0.93,1.2509540829999,1
3,21,2,2,2,0.737,1.05741154199995,1
3,22,3,2,1,0.736,1.05583854099996,0
3,23,2,2,2,0.856,1.01201029200001,1
3,24,2,1,2,0.633,1.20273441599988,0
3,25,2,1,1,0.607,1.30991179200009,1
3,26,3,2,2,0.726,0.81525770799999,1
3,27,1,1,1,0.504,1.45765362499992,1
3,28,3,1,1,0.843,0.918758958000126,1
3,29,2,1,1,0.593,1.32818654200014,1
3,30,1,1,1,0.897,1.00051645799999,1
3,31,2,1,1,1,0.781528875000049,1
3,32,1,1,1,0.951,0.936571583999921,1
3,33,3,2,1,0.593,1.53993070900015,0
3,34,3,2,1,0.77,0.944232915999919,0
3,35,3,2,2,0.78,0.998958125000172,1
3,36,2,2,2,0.613,1.24043908299996,1
3,37,1,2,1,0.741,0.920708541000067,0
3,38,3,1,1,0.892,0.863979167000025,1
3,39,2,1,1,0.97,0.78456058300003,1
3,40,3,2,2,0.541,1.27496037500009,1
3,41,1,1,1,0.746,0.88795499999992,1
3,42,1,1,2,0.627,1.19277891699994,0
3,43,1,2,2,0.776,1.02597349999996,1
3,44,3,1,1,0.944,1.16957137500003,1
3,45,2,1,1,0.913,1.35998704100007,1
3,46,3,2,2,0.909,1.05071925000016,1
3,47,1,1,1,0.938,0.993266208000023,1
3,48,3,2,2,0.829,1.04034962500009,1
3,49,3,1,1,0.943,1.25115729200002,1
3,50,3,2,2,0.831,1.05275237500018,1
3,1,3,1,1,0.588,1.68729183400001,1
3,2,2,1,2,0.599,1.14278345799994,0
3,3,3,2,1,0.69,0.85624074999987,0
3,4,3,1,1,0.8,0.978253833000053,1
3,5,2,2,2,0.827,0.948977583999977,1
3,6,2,1,2,0.951,1.03115979199993,0
3,7,3,1,1,0.889,1.13789825000003,1
3,8,3,2,2,0.833,1.1479234169999,1
3,9,1,1,1,0.631,1.22492616699992,1
3,10,1,1,1,0.916,0.869753374999846,1
3,11,1,1,1,0.977,1.06457395800021,1
3,12,3,2,2,0.94,1.30378599999995,1
3,13,3,2,1,0.625,1.22349958299992,0
3,14,2,1,1,0.629,2.04756337499998,1
3,15,3,2,2,0.835,0.909559958000045,1
3,16,2,1,2,0.732,1.06164629199998,0
3,17,2,1,1,0.657,0.97644483299996,1
3,18,2,1,1,0.724,0.803992332999997,1
3,19,3,1,1,0.786,0.850707624999814,1
3,20,2,1,1,0.986,0.871168291000004,1
3,21,1,1,1,0.753,0.916411625000137,1
3,22,3,2,1,0.601,2.30481470800009,0
3,23,1,1,1,0.762,0.96691454200004,1
3,24,3,1,1,0.887,0.987558750000062,1
3,25,1,2,1,0.749,0.825965083000028,0
3,26,2,1,1,0.844,0.962397125000052,1
3,27,1,1,1,0.921,0.880664750000051,1
3,28,1,1,1,0.922,0.83309516700001,1
3,29,2,1,1,0.843,0.968458374999955,1
3,30,1,1,1,0.927,0.937881249999919,1
3,31,2,1,1,0.73,1.1121854999999,1
3,32,3,2,2,0.957,1.006882292,1
3,33,2,1,1,0.866,1.07563512499996,1
3,34,2,2,2,0.752,1.35190791699983,1
3,35,2,1,1,0.826,1.14486991700005,1
3,36,1,2,1,0.745,0.777854458000093,0
3,37,2,2,2,0.599,1.42458929199984,1
3,38,3,1,1,0.686,0.839887249999947,1
3,39,3,2,2,0.836,1.24569370800009,1
3,40,1,2,1,0.632,1.00878850000004,0
3,41,3,2,2,0.641,0.832661291000022,1
3,42,1,1,2,0.658,1.13570804200003,0
3,43,1,2,2,0.884,0.98739787500017,1
3,44,1,2,2,0.884,0.768273000000136,1
3,45,1,2,2,0.773,0.905172416000141,1
3,46,1,1,1,0.623,1.04709495900011,1
3,47,3,1,1,0.769,0.937655250000034,1
3,48,1,1,1,0.895,0.969087333000061,1
3,49,3,1,1,0.564,1.11287391699989,1
3,50,2,1,1,0.762,0.893531334000045,1
3,1,2,1,1,0.537,1.93768887500005,1
3,2,3,1,1,0.776,0.949362083000096,1
3,3,2,1,1,0.861,0.645622209000067,1
3,4,3,2,2,0.927,1.09708191599998,1
3,5,3,2,2,0.638,1.11470099999997,1
3,6,3,2,2,0.869,0.833815167000012,1
3,7,3,2,2,0.764,0.838273666999839,1
3,8,2,2,2,0.764,1.074940083,1
3,9,3,2,2,0.923,0.851850582999987,1
3,10,1,1,1,0.782,1.19172550000008,1
3,11,2,2,2,0.745,0.969622040999866,1
3,12,3,1,1,0.859,0.76724087499997,1
3,13,2,2,2,0.846,0.942524166000112,1
3,14,2,2,2,0.61,1.8104109169999,1
3,15,3,1,1,0.788,0.7719743749999,1
3,16,3,1,1,0.917,0.783385917000032,1
3,17,3,1,1,0.614,0.999969791000012,1
3,18,1,1,1,0.771,0.980003083000156,1
3,19,3,1,1,0.973,0.675451792000104,1
3,20,2,2,2,0.912,1.01850170800003,1
3,21,3,1,1,0.576,0.713064708000047,1
3,22,3,1,1,0.668,2.07213400000001,1
3,23,1,2,2,0.976,1.24714100000006,1
3,24,3,1,1,0.952,1.01002012499998,1
3,25,1,1,1,0.855,0.953365458000007,1
3,26,1,2,1,0.813,1.31880575000014,0
3,27,2,2,2,0.843,0.916229124999973,1
3,28,3,2,2,0.94,0.871855792000133,1
3,29,3,1,1,0.793,0.936244832999819,1
3,30,2,1,1,1,0.889590291000104,1
3,31,3,1,1,0.628,1.45536629200001,1
3,32,3,2,2,0.813,0.968977042000006,1
3,33,3,1,1,0.539,1.36095458399996,1
3,34,3,2,2,0.744,0.851805667000008,1
3,35,3,2,1,0.753,1.04714233300001,0
3,36,1,1,1,0.568,1.85187420800003,1
3,37,2,1,1,0.706,0.990422125000123,1
3,38,3,2,2,0.714,0.93418320800015,1
3,39,1,2,2,0.575,1.42233350000015,1
3,40,3,1,1,0.797,0.858984708999969,1
3,41,3,1,2,0.641,0.944091458000003,0
3,42,2,1,1,0.745,0.917922791999899,1
3,43,1,2,2,0.582,1.10083283300014,1
3,44,3,2,2,0.858,0.922986499999979,1
3,45,2,1,1,0.902,1.23413654199999,1
3,46,1,1,1,0.971,1.01544124999987,1
3,47,1,2,2,0.53,1.194506542,1
3,48,3,2,2,0.941,0.917715709000049,1
3,49,3,1,1,0.936,1.06630337499996,1
3,50,2,2,2,0.58,1.55228233300022,1
3,1,3,1,1,0.97,1.06097475000001,1
3,2,3,2,1,0.749,0.898511374999998,0
3,3,1,2,2,0.864,1.20180200000004,1
3,4,1,2,1,0.59,1.6241131669999,0
3,5,3,2,2,0.74,0.918809499999952,1
3,6,2,1,1,0.789,1.30546433300015,1
3,7,2,1,1,0.603,1.3735919589999,1
3,8,1,1,1,0.677,1.33161187499991,1
3,9,3,1,1,0.77,0.9555782919997,1
3,10,3,2,2,0.698,1.32061899999962,1
3,11,2,2,2,0.607,0.958746583999982,1
3,12,1,2,2,0.842,0.943401250000079,1
3,13,1,1,2,0.661,1.08271749999994,0
3,14,3,2,2,0.887,1.1582871669998,1
3,15,3,2,2,0.975,1.09598458299979,1
3,16,3,1,1,0.963,1.102591459,1
3,17,3,2,2,0.866,1.24150845799977,1
3,18,2,1,1,0.782,0.928774166000039,1
3,19,1,2,2,0.589,1.83993950000013,1
3,20,2,2,2,0.863,0.797512832999928,1
3,21,2,1,2,0.721,1.55175175000022,0
3,22,1,2,2,0.734,0.795734125000308,1
3,23,1,1,1,0.79,0.893576208000013,1
3,24,1,2,2,0.873,0.871961542000008,1
3,25,2,1,1,0.797,0.943071416999828,1
3,26,1,1,1,0.965,0.767071332999876,1
3,27,1,2,2,0.837,1.064582083,1
3,28,2,2,2,0.956,0.832673417000024,1
3,29,3,2,2,0.862,0.844493790999877,1
3,30,1,1,2,0.655,1.18699512500007,0
3,31,2,2,2,0.822,0.941338042000098,1
3,32,2,2,2,0.927,0.785012959000142,1
3,33,1,1,2,0.709,1.00006675000031,0
3,34,2,1,1,0.999,0.979255249999824,1
3,35,1,1,1,0.701,0.987953542000014,1
3,36,1,2,2,0.784,1.25776945799998,1
3,37,2,2,2,0.834,1.22666116699975,1
3,38,3,2,2,0.904,0.807483041000069,1
3,39,3,2,2,0.828,0.913696208000147,1
3,40,1,2,1,0.644,1.35148295800036,0
3,41,1,1,1,0.789,0.845949999999903,1
3,42,3,1,1,0.615,1.24129866699968,1
3,43,2,1,1,0.777,1.10147204199984,1
3,44,2,1,1,0.717,0.863142290999804,1
3,45,2,2,2,0.867,1.031357458,1
3,46,1,2,2,0.69,0.901932666999983,1
3,47,3,2,2,0.986,1.13865087500017,1
3,48,1,2,2,0.82,1.0059980420001,1
3,49,1,2,2,0.691,0.657338667000204,1
3,50,3,2,2,0.848,0.907723416999943,1
3,1,1,1,2,0.793,1.15149412499977,0
3,2,3,1,2,0.7,0.885671874999844,0
3,3,3,2,2,0.589,0.93665695899972,1
3,4,3,2,2,0.659,0.737827082999956,1
3,5,2,2,1,0.601,1.26814333399989,0
3,6,1,1,2,0.773,1.04178212499983,0
3,7,3,2,2,0.886,0.789122958999997,1
3,8,2,2,1,0.886,1.18327695800008,0
3,9,3,2,2,0.72,0.883888291000403,1
3,10,3,2,2,0.81,0.98385904099996,1
3,11,1,2,1,0.638,1.55310574999976,0
3,12,3,1,1,0.969,1.59710658299991,1
3,13,2,1,1,0.637,1.35097504099986,1
3,14,3,2,2,0.893,1.24405174999993,1
3,15,2,1,1,0.629,1.23067791699987,1
3,16,3,1,1,1,1.29771012499987,1
3,17,3,2,2,0.971,1.19339683300041,1
3,18,3,2,2,0.831,0.742666874999941,1
3,19,1,2,2,0.777,0.770637125000121,1
3,20,3,2,1,0.966,1.10131954100007,0
3,21,1,1,1,0.834,0.838351041999886,1
3,22,1,1,1,0.581,1.07830254200007,1
3,23,1,1,2,0.807,1.01006591600026,0
3,24,1,2,2,0.698,0.727809083000011,1
3,25,1,1,1,0.863,1.04119662499988,1
3,26,3,2,2,0.831,1.09876716700001,1
3,27,3,2,1,0.695,1.33718141600002,0
3,28,3,1,1,0.948,0.824812500000007,1
3,29,2,1,1,0.644,0.862108083999829,1
3,30,1,2,1,0.698,1.27965462500015,0
3,31,1,1,1,0.791,0.849007167000309,1
3,32,2,2,1,0.958,1.02516549999973,0
3,33,2,2,1,0.696,1.00165074999995,0
3,34,1,2,2,1.019,0.959554000000026,1
3,35,2,1,1,1,1.32885450000003,1
3,36,3,1,2,0.877,1.32042162500011,0
3,37,2,1,1,0.946,1.091854625,1
3,38,1,2,2,0.833,1.17857645899994,1
3,39,3,1,1,0.887,0.984055875000195,1
3,40,1,1,1,0.987,0.832520124999974,1
3,41,2,2,2,0.919,1.32164654200005,1
3,42,3,1,2,0.962,0.84662920799974,0
3,43,3,2,2,0.702,0.958777249999912,1
3,44,2,1,2,0.653,0.986992583999836,0
3,45,2,1,1,0.84,0.953734416999851,1
3,46,2,1,2,0.678,0.777728083000056,0
3,47,2,2,1,0.932,0.931042416999844,0
3,48,1,2,2,0.503,1.8552869160003,1
3,49,1,1,1,0.567,0.961959167000259,1
3,50,1,2,1,0.555,0.663032333000046,0
3,1,2,2,1,0.662,1.56317958299996,0
3,2,1,1,2,0.952,0.711983625000357,0
3,3,1,1,1,0.843,0.971928583000135,1
3,4,1,1,2,0.522,1.08140512499995,0
3,5,1,2,1,0.821,0.858868374999929,0
3,6,2,1,1,1,0.914541707999888,1
3,7,3,2,2,0.996,1.04985208400012,1
3,8,2,2,2,0.651,1.0966374579998,1
3,9,1,2,1,0.694,1.23288733300024,0
3,10,2,2,2,0.72,0.761276458999873,1
3,11,3,2,1,0.714,0.7233817919996,0
3,12,3,2,2,0.763,0.758863999999903,1
3,13,2,1,2,0.593,1.84860887500008,0
3,14,2,1,1,0.829,0.760876499999995,1
3,15,2,2,1,0.945,0.818744416999834,0
3,16,3,2,2,0.631,1.08078704199988,1
3,17,1,1,1,0.78,1.20848800000022,1
3,18,3,2,2,0.917,0.980866708000121,1
3,19,2,2,2,0.587,0.985432041999957,1
3,20,1,1,1,0.678,1.08121087500012,1
3,21,1,1,2,0.619,1.08270429200002,0
3,22,3,2,2,0.838,0.859954250000101,1
3,23,1,2,1,0.783,1.04552600000034,0
3,24,1,2,1,0.938,0.834275084000183,0
3,25,3,1,1,0.846,0.729341750000003,1
3,26,3,1,1,0.858,0.81715479200011,1
3,27,2,2,2,0.579,0.966789042000073,1
3,28,3,2,1,0.626,1.80303666700001,0
3,29,1,2,2,0.741,0.704302499999812,1
3,30,3,2,2,0.906,0.801029500000368,1
3,31,2,1,1,0.866,0.929211541999848,1
3,32,3,1,1,0.866,1.10315116699985,1
3,33,1,2,2,0.638,1.14110287499989,1
3,34,1,2,1,0.807,0.841200792000109,0
3,35,1,2,2,0.746,0.849070291999851,1
3,36,1,2,1,0.571,0.889596750000237,0
3,37,1,2,2,0.588,0.951568541999677,1
3,38,1,2,1,0.807,0.866980792000049,0
3,39,2,1,1,0.701,0.810081499999797,1
3,40,2,1,2,0.535,1.44615950000025,0
3,41,1,2,1,0.801,0.728380582999762,0
3,42,1,2,2,0.866,0.801892750000206,1
3,43,3,1,2,0.546,1.40814508400035,0
3,44,1,1,2,0.615,0.943400000000111,0
3,45,2,1,1,0.616,1.60884183400003,1
3,46,3,2,2,0.763,0.950958499999615,1
3,47,1,1,1,0.623,0.774979540999993,1
3,48,2,2,1,0.742,0.921230165999987,0
3,49,3,1,1,0.626,0.832721082999797,1
3,50,2,1,1,0.832,0.786286000000018,1
3,1,1,1,2,0.878,0.937052959000084,0
3,2,3,2,2,0.655,0.974781416000042,1
3,3,1,1,1,0.767,1.28925066700003,1
3,4,1,2,1,0.807,0.664633791000142,0
3,5,2,1,1,0.553,1.489064375,1
3,6,2,2,2,0.777,0.757290874999853,1
3,7,3,2,2,0.866,0.756707167000059,1
3,8,2,1,1,0.677,0.777452333999918,1
3,9,2,1,1,0.852,0.676890500000354,1
3,10,3,2,2,0.858,0.815966707999905,1
3,11,3,1,1,0.724,0.996479582999655,1
3,12,3,1,1,0.915,0.665372791000209,1
3,13,2,1,1,0.714,0.867234082999857,1
3,14,2,1,1,0.582,0.836182291999648,1
3,15,3,2,2,0.579,1.57714245899979,1
3,16,1,2,1,0.633,1.12001745799989,0
3,17,2,2,1,0.697,0.966672125000059,0
3,18,3,1,1,0.906,0.866986083000029,1
3,19,2,1,1,0.788,0.647876916999849,1
3,20,2,1,1,0.879,0.64770233299987,1
3,21,2,2,1,0.737,1.18408170900011,0
3,22,2,2,2,0.599,1.06505724999988,1
3,23,2,1,1,0.67,0.744058291000329,1
3,24,1,2,2,0.938,1.09060524999995,1
3,25,1,2,2,0.508,1.41391545800025,1
3,26,1,2,2,0.649,0.758549083000162,1
3,27,3,2,2,0.876,0.709896416999982,1
3,28,2,2,2,0.607,1.77734916700001,1
3,29,3,1,1,0.85,0.792746665999857,1
3,30,2,1,1,0.85,0.590048750000278,1
3,31,3,1,1,0.864,1.09125804099995,1
3,32,1,1,1,0.893,0.854706957999952,1
3,33,2,2,2,0.653,0.752697000000353,1
3,34,2,2,2,0.857,0.712118916999771,1
3,35,2,1,1,1,0.86841345799985,1
3,36,1,2,1,0.907,0.827677917000074,0
3,37,2,1,1,0.752,0.748726457999965,1
3,38,2,1,2,0.76,1.51292333399988,0
3,39,3,2,2,0.587,1.10187608299975,1
3,40,3,2,2,0.628,1.30689091600016,1
3,41,2,2,2,0.678,0.805758791000244,1
3,42,1,2,1,0.601,1.36377704100005,0
3,43,2,2,2,0.882,0.861538250000194,1
3,44,1,1,2,0.676,1.20107133300007,0
3,45,1,2,1,0.651,1.09024479199979,0
3,46,3,2,2,0.658,0.969681375000164,1
3,47,1,1,1,0.817,0.867719084000328,1
3,48,1,2,2,0.666,1.03206624999984,1
3,49,3,2,2,0.75,0.800248167000063,1
3,50,1,2,2,0.662,0.774041958999987,1
3,1,1,2,1,0.644,1.01884937500017,0
3,2,3,2,2,0.818,0.865610709000066,1
3,3,2,1,2,0.72,0.870679958999972,0
3,4,1,1,2,0.654,0.701973875000022,0
3,5,3,2,2,0.771,1.09998862500015,1
3,6,3,2,2,0.897,0.744684624999991,1
3,7,1,1,1,0.874,0.938385666999693,1
3,8,3,1,1,0.994,0.742180708999967,1
3,9,1,2,2,0.984,1.10407175,1
3,10,2,2,1,0.912,1.05202970800019,0
3,11,2,1,2,0.781,1.07598254199957,0
3,12,2,2,2,0.666,0.764416999999867,1
3,13,3,2,2,0.918,0.806791625000187,1
3,14,1,1,2,0.749,0.718069832999845,0
3,15,2,2,2,0.787,0.812377707999985,1
3,16,1,1,1,0.941,0.991839042000265,1
3,17,3,2,1,0.842,0.730097166000178,0
3,18,2,2,2,0.72,0.873826334000114,1
3,19,2,2,2,0.979,0.706554625000081,1
3,20,3,2,2,0.682,0.873973834000026,1
3,21,1,2,2,0.819,0.75408679200018,1
3,22,2,1,1,0.828,1.03154879200019,1
3,23,2,1,1,0.677,1.06168591599999,1
3,24,3,2,2,0.953,0.813818332999745,1
3,25,1,2,2,0.829,0.572685000000092,1
3,26,2,2,2,0.749,0.633993207999993,1
3,27,1,2,1,0.622,0.778345958000045,0
3,28,3,2,1,0.708,1.04846020900004,0
3,29,1,2,1,0.624,0.771987125000123,0
3,30,3,2,2,0.759,0.792707250000149,1
3,31,3,1,1,0.676,0.711100250000072,1
3,32,3,2,2,0.764,0.834282124999845,1
3,33,3,2,2,0.711,0.800648333000026,1
3,34,1,1,1,0.932,0.812220750000051,1
3,35,3,1,1,0.64,0.961149917000057,1
3,36,2,1,1,0.718,0.838777917000243,1
3,37,3,1,1,0.759,0.858833041999787,1
3,38,3,2,1,0.603,0.886077291999754,0
3,39,2,2,1,0.751,0.907184041000164,0
3,40,2,2,1,0.627,0.752687416999834,0
3,41,3,1,1,0.627,0.617372916000022,1
3,42,1,2,2,0.927,1.11248816699981,1
3,43,2,1,1,0.859,0.756439958000101,1
3,44,2,2,1,0.704,1.23774304200015,0
3,45,3,1,2,0.763,0.895512707999842,0
3,46,3,2,2,0.865,1.07683237499987,1
3,47,3,1,1,0.789,0.824556167000082,1
3,48,1,2,2,0.681,0.984180709000157,1
3,49,3,2,2,0.877,0.848283916000128,1
3,50,1,1,1,0.803,0.960365291000016,1
3,1,2,1,1,0.906,1.71857683300004,1
3,2,2,1,1,0.729,0.91038137500027,1
3,3,1,2,2,0.598,0.921338582999851,1
3,4,1,2,2,0.635,1.44942116699985,1
3,5,1,2,2,0.853,0.840303124999991,1
3,6,2,2,2,0.635,0.952867374999641,1
3,7,3,1,1,0.99,0.799915457999759,1
3,8,2,2,1,0.812,0.712679415999901,0
3,9,3,1,1,0.617,0.887884207999832,1
3,10,3,2,2,0.968,0.810904500000106,1
3,11,3,1,1,0.766,0.948925000000145,1
3,12,1,1,1,0.842,0.895276958000068,1
3,13,3,1,1,0.655,1.01446504200021,1
3,14,3,2,2,0.645,0.888793624999835,1
3,15,2,1,1,0.849,0.728117791999921,1
3,16,2,1,1,0.706,0.737102875000346,1
3,17,1,1,1,0.797,0.817947500000173,1
3,18,1,1,1,0.653,0.847340959000121,1
3,19,1,2,1,0.842,0.791258207999817,0
3,20,1,2,1,0.678,0.801735707999796,0
3,21,3,2,2,0.744,1.15081645800001,1
3,22,3,2,2,0.66,0.724077250000391,1
3,23,2,1,1,0.76,0.97087454099983,1
3,24,2,2,1,0.821,0.819901124999888,0
3,25,2,2,2,0.873,1.17515966600013,1
3,26,2,2,1,0.605,0.940628249999918,0
3,27,1,1,1,0.792,0.769556041000214,1
3,28,3,1,1,0.791,0.69784962499989,1
3,29,2,1,2,0.678,1.03393991600024,0
3,30,2,1,1,0.766,0.74524162500029,1
3,31,2,1,2,0.758,0.836159875000249,0
3,32,2,1,1,0.764,0.729917416999797,1
3,33,3,1,1,0.968,0.818625500000053,1
3,34,1,1,1,0.86,0.730179958000008,1
3,35,1,2,2,0.661,1.04023229199993,1
3,36,1,2,1,0.711,1.12855779199981,0
3,37,3,2,2,0.815,1.15317720800022,1
3,38,3,2,2,0.923,1.05572424999991,1
3,39,2,2,1,0.699,1.14344062500004,0
3,40,3,1,1,0.874,0.859906499999852,1
3,41,2,2,1,0.965,0.810718250000264,0
3,42,2,1,2,0.714,1.10395316699987,0
3,43,3,1,1,0.634,1.66382154199982,1
3,44,2,2,2,0.599,1.44074570800012,1
3,45,3,2,2,0.799,1.08067149999988,1
3,46,3,1,1,0.761,0.745048709000002,1
3,47,2,2,2,0.592,1.18427379199966,1
3,48,1,1,2,0.733,0.728922042000249,0
3,49,3,1,1,0.746,1.3720322500003,1
3,50,1,1,2,0.607,1.01612641700012,0
3,1,2,1,1,0.665,0.763146457999937,1
3,2,1,2,1,0.811,0.784945957999753,0
3,3,3,1,2,0.973,0.708018249999895,0
3,4,1,2,2,0.715,0.726752500000202,1
3,5,3,2,2,0.639,0.680112624999765,1
3,6,3,1,1,0.902,0.841006207999726,1
3,7,1,1,2,0.615,0.977426790999743,0
3,8,2,2,1,0.737,0.857411459000105,0
3,9,1,2,1,0.715,0.731019207999907,0
3,10,3,2,2,0.649,0.976120666000043,1
3,11,1,2,2,0.722,0.944435416000033,1
3,12,2,1,1,0.625,0.875526041999819,1
3,13,3,1,2,0.731,1.25076129099989,0
3,14,1,1,2,0.596,1.03772637500015,0
3,15,3,2,1,0.646,0.987852374999875,0
3,16,1,1,2,0.849,0.779158040999846,0
3,17,3,1,1,0.701,0.795089874999576,1
3,18,1,1,1,0.701,0.761559624999791,1
3,19,1,1,1,0.761,1.21549104099995,1
3,20,3,1,1,0.904,0.740908375000345,1
3,21,3,2,2,0.877,0.929761417000009,1
3,22,3,2,2,0.877,0.568485541999962,1
3,23,3,1,1,0.722,0.800154250000105,1
3,24,3,2,2,0.807,1.04814808299989,1
3,25,3,1,1,1,0.777709792000223,1
3,26,3,1,1,0.766,0.888185374999921,1
3,27,1,2,1,0.766,0.784753416999592,0
3,28,1,1,1,0.767,0.78940912500002,1
3,29,3,1,1,0.88,0.720775167000284,1
3,30,2,2,2,1.053,0.846425374999853,1
3,31,3,1,1,0.587,0.795629374999862,1
3,32,3,2,2,0.855,0.808201249999911,1
3,33,3,1,2,0.783,1.86799016699979,0
3,34,1,2,2,0.744,0.592913542000133,1
3,35,1,1,1,0.75,0.841087625,1
3,36,2,1,2,0.8,0.819426166000085,0
3,37,3,2,2,0.65,0.841079499999978,1
3,38,2,2,2,0.814,0.722159459000068,1
3,39,1,2,1,0.734,0.791672166999888,0
3,40,3,2,2,0.651,0.682127041999593,1
3,41,1,1,1,0.584,1.32864274999974,1
3,42,2,1,1,0.769,0.88697937500001,1
3,43,3,1,1,0.861,0.755267707999792,1
3,44,2,1,1,0.686,0.935368417000063,1
3,45,3,1,1,0.818,0.746469875000003,1
3,46,2,2,2,0.737,1.02537504200018,1
3,47,1,2,2,0.571,0.777900125000087,1
3,48,1,2,1,0.727,0.76163220799981,0
3,49,1,2,2,0.581,0.812667416000295,1
3,50,2,1,1,0.62,1.03452666700014,1
4,1,2,2,1,1,1.83169762499983,0
4,2,2,2,2,1.009,2.10902208300013,1
4,3,3,2,2,1.009,1.69611345799967,1
4,4,1,2,1,0.99,2.60319108299973,0
4,5,1,2,2,0.995,1.82964491599978,1
4,6,3,2,2,1.002,1.22250366699973,1
4,7,2,2,2,0.999,1.29366541699983,1
4,8,1,2,2,1.001,1.33223337500021,1
4,9,1,2,2,1.001,0.965198832999704,1
4,10,1,2,2,1.001,0.703105083000082,1
4,11,2,2,2,1.001,0.716376250000394,1
4,12,3,2,2,1.001,0.781996790999983,1
4,13,3,1,1,0.997,1.91522479099967,1
4,14,2,1,2,1.004,1.5558509170005,0
4,15,3,2,2,1.004,0.728512374999809,1
4,16,3,2,2,1.004,0.790815999999722,1
4,17,1,2,2,1.004,0.919166084000608,1
4,18,3,1,2,1.004,0.717416584000603,0
4,19,3,2,2,1.004,0.773951916999977,1
4,20,2,2,2,1.004,1.01517883300039,1
4,21,2,1,1,1,2.59086825000031,1
4,22,2,1,2,1.01,2.43427270800021,0
4,23,1,1,1,1,1.71707916600008,1
4,24,2,2,2,1.007,1.92391049999969,1
4,25,2,1,1,0.997,1.87800179199985,1
4,26,1,2,2,0.998,1.53340687499986,1
4,27,1,1,2,1.008,1.7341524579997,0
4,28,3,2,2,1.004,1.70181045800018,1
4,29,2,1,1,1,2.4527544169996,1
4,30,1,1,2,0.992,1.99365633300022,0
4,31,2,1,2,0.805,5.47657216700009,0
4,32,3,1,2,0.912,2.02093787500053,0
4,33,3,1,1,0.999,1.50765179100017,1
4,34,2,1,2,0.727,3.55096562499966,0
4,35,2,1,2,0.991,1.81394458300019,0
4,36,1,2,1,0.811,2.12644724999973,0
4,37,2,2,2,0.755,3.30254133400013,1
4,38,3,2,2,0.999,1.54027899999983,1
4,39,1,2,2,0.999,1.60652208400006,1
4,40,1,2,2,0.999,1.26060579200021,1
4,41,1,1,2,0.999,1.0778144169999,0
4,42,3,2,2,0.999,0.817624582999997,1
4,43,2,1,1,1,2.02840858400032,1
4,44,2,2,2,0.994,1.78835183299998,1
4,45,3,2,2,0.992,0.838390167000398,1
4,46,3,1,1,1,1.63803199999984,1
4,47,1,1,1,1,1.76553491600043,1
4,48,2,2,2,1.016,1.35089150000022,1
4,49,1,1,1,0.989,1.7562356669996,1
4,50,1,2,2,0.998,1.33432716700008,1
4,1,2,1,2,0.546,5.40767395799958,0
4,2,2,1,1,0.997,2.65376845900028,1
4,3,3,2,2,1.005,1.63708595900061,1
4,4,2,2,2,0.992,1.34240933399997,1
4,5,3,2,2,0.996,0.820657165999364,1
4,6,3,1,1,1,1.8617036250007,1
4,7,2,1,1,0.999,1.47151429200039,1
4,8,1,2,2,0.997,2.22099462500046,1
4,9,3,1,1,1,1.67747220900037,1
4,10,2,1,1,1,0.97327604199927,1
4,11,1,2,2,0.998,1.97425941700021,1
4,12,3,2,2,0.998,0.797842250000031,1
4,13,2,1,1,1,2.27777808300016,1
4,14,3,2,2,1.009,4.68020975000036,1
4,15,3,1,1,1,1.43409941699974,1
4,16,1,2,2,0.999,1.75434829200003,1
4,17,3,1,1,0.996,1.54192616700038,1
4,18,1,2,2,1.001,1.33564262500022,1
4,19,1,2,1,0.995,2.00390199999947,0
4,20,1,2,2,0.994,1.84617933399932,1
4,21,3,1,1,1,1.48109908300012,1
4,22,1,2,1,0.994,1.18345479100026,0
4,23,1,1,1,1,1.02461529199991,1
4,24,3,2,2,0.995,1.68031112500012,1
4,25,3,1,1,1,1.22944208299941,1
4,26,2,2,2,0.992,1.83930545800013,1
4,27,1,1,1,1,1.37804204199983,1
4,28,1,1,1,1,1.35430883300069,1
4,29,2,2,2,1.009,1.77077895799994,1
4,30,1,2,2,0.984,2.60732349999944,1
4,31,1,2,2,1.006,1.31478591699943,1
4,32,2,1,1,0.998,3.57888445800018,1
4,33,3,2,2,1.001,1.39152612500038,1
4,34,2,2,2,0.993,2.75656095900013,1
4,35,3,1,1,1,1.58697037500042,1
4,36,3,2,2,1,1.50536174999979,1
4,37,1,2,2,0.996,1.43167008399996,1
4,38,2,2,2,0.998,1.29712825000024,1
4,39,3,1,1,0.997,2.07235374999982,1
4,40,2,2,2,0.996,1.50823029100047,1
4,41,2,1,1,1,1.72103245899962,1
4,42,2,2,2,0.998,1.85514045800028,1
4,43,3,1,1,1,1.67357637499936,1
4,44,3,2,2,1.002,1.37397658400005,1
4,45,2,2,2,1.013,1.18545066699971,1
4,46,3,1,1,1,1.92844229100047,1
4,47,1,1,2,1.002,1.56070462499974,0
4,48,1,1,1,0.995,2.4909190419994,1
4,49,3,2,2,1.005,1.98225537500002,1
4,50,3,2,2,1.004,0.675469374999921,1
4,1,3,1,1,0.995,1.55524895800045,1
4,2,3,2,2,1.002,1.50033120799981,1
4,3,3,2,2,1.01,0.892110333999881,1
4,4,1,2,2,1.01,0.776522250000198,1
4,5,1,1,1,1,1.6195900419998,1
4,6,2,2,2,1.013,1.4130895419994,1
4,7,2,1,2,1.013,0.635608708000291,0
4,8,1,1,1,1,1.86907562499982,1
4,9,3,2,2,1.01,1.49524408399975,1
4,10,1,2,2,1.01,0.705277250000108,1
4,11,3,2,2,1.01,0.66325658400001,1
4,12,2,2,2,1.01,0.801005290999456,1
4,13,1,2,1,1,2.79926070900001,0
4,14,2,1,1,1,2.25138020900067,1
4,15,3,1,1,1,0.742081708000114,1
4,16,1,2,1,1,0.847685583000384,0
4,17,3,1,1,1,0.845213208000132,1
4,18,3,2,2,1.005,2.05661012499968,1
4,19,2,1,1,1,1.25257925000005,1
4,20,3,2,2,1.002,1.78129904199977,1
4,21,3,2,2,1.001,1.46954762500081,1
4,22,2,2,2,0.991,1.10573025000031,1
4,23,3,2,2,0.993,1.55320962499991,1
4,24,1,2,2,0.999,1.11722908299998,1
4,25,3,1,1,1,2.00413037500039,1
4,26,3,1,1,1,1.55228470900056,1
4,27,2,1,1,1,0.884040625000125,1
4,28,3,1,1,1,0.751123582999753,1
4,29,2,1,1,1,0.886892917000296,1
4,30,2,1,1,1,1.00621362499987,1
4,31,1,2,2,1.02,1.68254079100006,1
4,32,1,1,2,1.004,1.29998512499969,0
4,33,1,2,2,1.003,0.901827540999875,1
4,34,1,2,2,1.002,0.717244458000096,1
4,35,3,1,1,1,1.39700970899958,1
4,36,1,1,2,1.026,1.34467166700051,0
4,37,2,2,2,1.002,1.24419654200028,1
4,38,1,2,2,1.002,0.851496958999633,1
4,39,3,1,1,1,1.3666002910004,1
4,40,2,1,2,0.992,1.59738600000037,0
4,41,1,1,1,1,1.2368403749997,1
4,42,1,1,2,0.986,2.68431179199979,0
4,43,1,2,2,1.017,1.58116787499966,1
4,44,3,1,1,1,2.14950704200055,1
4,45,2,1,1,1,0.921674124999299,1
4,46,2,2,2,0.921,1.88655870799994,1
4,47,2,1,2,0.797,2.29590279100012,0
4,48,2,2,2,0.993,1.64581570900009,1
4,49,2,1,2,0.812,1.61954724999941,0
4,50,3,2,2,1.005,1.52618308300043,1
4,1,2,1,1,1,2.61817983299989,1
4,2,3,2,2,0.994,2.31961754099939,1
4,3,3,2,2,1.006,1.35839308300001,1
4,4,2,1,1,0.997,1.54731691699999,1
4,5,2,1,2,0.993,1.80479466700035,0
4,6,3,1,1,1,1.43702483299967,1
4,7,3,2,2,0.999,1.63778545900004,1
4,8,1,1,1,1,1.58151745800023,1
4,9,2,1,1,1,0.828890040999795,1
4,10,2,2,2,1,1.49581987500005,1
4,11,3,2,2,1.01,2.10780491700007,1
4,12,2,1,1,1,11.7732440419995,1
4,13,1,1,1,1,0.700885416999881,1
4,14,3,1,1,1,0.559299124999598,1
4,15,1,2,2,0.994,4.58972350000022,1
4,16,2,2,2,0.786,10.812151958,1
4,17,2,2,1,1,2.14843183300036,0
4,18,3,2,2,1.01,1.83807075000004,1
4,19,2,1,1,0.998,2.02161208300004,1
4,20,3,2,2,0.993,1.68501845899937,1
4,21,1,1,1,0.699,1.75334558299983,1
4,22,3,2,2,0.994,1.70935287499924,1
4,23,2,2,2,1.003,0.998050209000212,1
4,24,2,1,1,1,1.47594566699991,1
4,25,3,1,2,1.003,2.68970933299988,0
4,26,3,2,2,1.004,1.34647750000022,1
4,27,1,2,2,1.013,0.941433957999834,1
4,28,1,1,1,0.932,2.08726037499946,1
4,29,2,1,2,0.942,1.79011329199966,0
4,30,2,2,2,0.997,1.39820329200029,1
4,31,2,2,1,1,1.52576166600011,0
4,32,3,1,1,0.998,1.19028295800035,1
4,33,2,1,1,0.998,0.958060416999615,1
4,34,3,2,2,0.999,1.59320129200023,1
4,35,1,1,1,1,1.38018079199992,1
4,36,3,1,1,1,0.983789458000501,1
4,37,3,2,1,1,0.719265332999385,0
4,38,2,2,2,1.003,1.87017679099972,1
4,39,2,1,1,0.695,2.94168399999944,1
4,40,1,1,2,0.829,1.61996787499993,0
4,41,1,1,1,0.985,2.22284258299987,1
4,42,2,1,1,0.992,1.04181183299988,1
4,43,2,2,1,0.992,1.37468374999935,0
4,44,3,2,2,1.004,1.79064712499985,1
4,45,1,1,1,0.707,2.71628766600043,1
4,46,3,2,2,0.999,1.84440179199919,1
4,47,2,1,1,0.684,1.72338633300024,1
4,48,3,2,2,1.01,1.75936058299976,1
4,49,3,1,1,1,1.93233304200021,1
4,50,2,1,1,1,0.893631624999216,1
4,1,2,2,1,1,1.49402020799971,0
4,2,2,2,1,0.766,3.46794733299976,0
4,3,1,2,2,0.816,1.60767258299984,1
4,4,3,2,2,0.823,1.53477099999964,1
4,5,1,1,2,0.823,1.59790233300009,0
4,6,2,2,2,0.817,1.42154524999933,1
4,7,3,2,2,0.993,1.45874866699978,1
4,8,2,2,2,1.004,1.0526447910006,1
4,9,1,1,2,1.006,1.21997575000023,0
4,10,2,1,1,0.596,2.58144704200004,1
4,11,1,2,2,1.003,1.82110383399959,1
4,12,3,2,2,0.992,1.46267454100052,1
4,13,1,2,2,0.992,1.45410958299999,1
4,14,2,2,2,0.996,1.10959866699977,1
4,15,3,2,2,0.996,1.11808662500061,1
4,16,3,1,2,1.009,1.42115579199981,0
4,17,1,1,2,1.01,1.11754220799958,0
4,18,2,1,1,1,2.22297545799938,1
4,19,1,1,1,1,0.844183083000644,1
4,20,3,2,2,1,1.88443454099979,1
4,21,3,1,1,0.997,1.74199283300004,1
4,22,2,2,1,0.781,2.17425712500062,0
4,23,1,2,2,1,57.4300937500002,1
4,24,2,2,2,0.997,1.78800324999975,1
4,25,2,1,1,1,1.36609624999983,1
4,26,1,2,1,0.97,1.74488812500022,0
4,27,1,1,2,0.663,2.83763441700012,0
4,28,2,2,1,0.975,1.73008299999947,0
4,29,2,1,1,0.995,1.39942945799976,1
4,30,3,2,2,1.001,2.02248612499989,1
4,31,3,1,1,1,2.08552908399997,1
4,32,3,2,2,1.002,2.76440399999956,1
4,33,2,1,1,0.999,2.32576558300025,1
4,34,1,2,1,0.695,3.67168891700021,0
4,35,2,2,2,1.004,1.35045625000021,1
4,36,3,2,2,1.003,0.615964542000256,1
4,37,1,2,2,1.003,0.5956537080001,1
4,38,2,2,2,1.003,0.494603540999378,1
4,39,1,1,1,1,2.28819324999949,1
4,40,1,2,2,0.999,1.32514304100005,1
4,41,3,1,1,0.59,3.31794658299987,1
4,42,2,2,2,0.993,1.6459869170003,1
4,43,1,1,1,1,2.43802745899939,1
4,44,3,1,1,1,1.27306349999981,1
4,45,1,1,2,0.993,1.51471462500012,0
4,46,3,2,2,0.997,1.03643320900028,1
4,47,3,1,1,1,1.65475170799982,1
4,48,2,1,2,0.695,1.78150229099992,0
4,49,3,1,1,1,1.46993941700021,1
4,50,2,1,2,1.007,1.30356858400046,0
4,1,3,1,1,1,2.06332862500039,1
4,2,3,1,1,0.999,1.75735691599948,1
4,3,1,2,2,0.999,1.84588945799987,1
4,4,1,1,1,0.994,2.58895816699987,1
4,5,1,1,1,1,1.33353233299931,1
4,6,2,1,1,1,0.627313959000276,1
4,7,1,1,1,1,0.942713791000642,1
4,8,1,1,2,0.663,1.70277225000063,0
4,9,3,2,2,1.008,1.11666233400047,1
4,10,1,1,1,0.709,2.58114566699987,1
4,11,2,1,2,0.579,1.71106783300002,0
4,12,3,2,2,0.999,1.14868854199995,1
4,13,2,2,2,0.999,0.815011791999495,1
4,14,3,1,2,0.998,0.774240125000688,0
4,15,3,1,2,0.707,2.09323391699945,0
4,16,2,1,1,0.587,3.10548154200023,1
4,17,2,2,2,0.998,1.43640045800021,1
4,18,2,1,2,0.998,0.900533208000525,0
4,19,2,2,2,0.998,0.773550166000859,1
4,20,1,2,2,0.999,0.668365333000111,1
4,21,1,1,2,1.003,1.16754287499953,0
4,22,3,1,1,1,1.7590486250001,1
4,23,2,1,1,1,0.849282250000215,1
4,24,2,1,1,1,0.574806208999689,1
4,25,3,1,1,1,0.533816874999502,1
4,26,3,1,1,1,0.511468916999547,1
4,27,2,2,2,0.987,1.679124667,1
4,28,1,2,2,0.991,1.44381091699961,1
4,29,3,1,1,0.999,1.78112912500001,1
4,30,2,2,2,1.002,1.53434170800028,1
4,31,3,2,2,1.009,1.4141821660005,1
4,32,2,1,1,0.992,1.57420583299972,1
4,33,1,2,2,1.004,1.57273012499991,1
4,34,2,1,2,0.991,1.44577687499986,0
4,35,3,1,1,1,1.38997925000058,1
4,36,2,1,1,1,1.13455754200004,1
4,37,3,2,1,1,0.582115041999714,0
4,38,1,1,1,1,0.636504790999425,1
4,39,2,1,1,1,0.595941999999923,1
4,40,3,2,2,0.994,44.9992287499999,1
4,41,3,2,2,0.994,1.33829724999941,1
4,42,2,2,1,0.987,1.43123412499972,0
4,43,1,2,2,1.001,1.28784762499981,1
4,44,3,2,2,0.991,1.01976212500085,1
4,45,3,2,2,0.998,0.964718833000006,1
4,46,1,2,2,0.998,0.751161375000265,1
4,47,1,2,2,0.998,0.580072833000486,1
4,48,1,2,2,0.998,0.695101334000356,1
4,49,2,1,1,1,1.99128566699983,1
4,50,2,1,1,1,0.722946083000352,1
4,1,2,2,2,1,2.85564341600002,1
4,2,1,1,2,0.996,2.30046762500024,0
4,3,1,2,2,0.713,2.72511554199991,1
4,4,3,2,2,1.007,1.35541895799997,1
4,5,2,1,1,0.985,1.67423633300041,1
4,6,2,2,2,1.001,1.55762354200033,1
4,7,2,2,2,0.989,0.621319458000471,1
4,8,2,1,2,0.992,0.942090749999807,0
4,9,2,1,1,1,1.45629520800048,1
4,10,1,2,1,1,1.13573454099969,0
4,11,1,1,1,1,0.590056541999729,1
4,12,2,2,2,1,1.4378487920003,1
4,13,2,2,1,0.606,1.54160912499992,0
4,14,2,1,2,0.613,1.82324883299952,0
4,15,3,2,2,1.004,18.0567137090002,1
4,16,1,1,1,1,1.85206537499926,1
4,17,1,1,2,0.602,1.91955208400032,0
4,18,3,2,2,0.989,1.83820954200019,1
4,19,1,1,1,0.994,1.49873245799972,1
4,20,1,1,1,0.996,0.95848316699994,1
4,21,1,1,1,0.996,0.567318166999939,1
4,22,3,2,2,0.996,1.61572287499985,1
4,23,2,1,1,0.996,1.5266176669993,1
4,24,1,1,1,0.616,1.78901562499959,1
4,25,1,1,1,1,1.36472241699994,1
4,26,3,2,2,0.998,1.59283141699962,1
4,27,3,1,1,0.737,1.21395254199979,1
4,28,2,1,1,1,1.08528137499979,1
4,29,3,1,1,1,0.550712917000055,1
4,30,1,2,2,1.017,1.5341908750006,1
4,31,1,1,1,0.974,1.43343025000013,1
4,32,3,1,1,1,1.11789433400008,1
4,33,3,1,1,1,0.551716667000619,1
4,34,1,2,1,1,0.543650708000314,0
4,35,3,2,2,1.014,1.48178466700028,1
4,36,1,1,1,0.76,1.87833133299955,1
4,37,3,2,2,0.81,1.62338587500017,1
4,38,3,2,1,0.612,1.61252700000023,0
4,39,1,1,2,0.628,2.0166021670002,0
4,40,3,2,2,1.007,1.20674074999988,1
4,41,1,2,2,1.005,0.940369083000405,1
4,42,2,1,1,0.987,1.56154574999982,1
4,43,2,2,2,1.011,1.68022620800002,1
4,44,3,2,2,1.011,0.957759459000044,1
4,45,2,1,1,0.991,1.43468112499977,1
4,46,1,1,1,0.982,1.08716458399977,1
4,47,3,1,1,0.994,1.07955487500021,1
4,48,2,2,2,0.993,1.61896179199994,1
4,49,2,2,2,0.996,0.902954041999692,1
4,50,1,2,2,0.996,0.802694250000059,1
4,1,1,2,2,1.002,2.00096787500024,1
4,2,1,1,2,0.994,2.08662941700004,0
4,3,1,2,2,0.995,0.891649333999339,1
4,4,2,1,2,0.999,0.773250666999957,0
4,5,1,2,2,0.999,0.69645225000022,1
4,6,3,1,1,1,1.59494516700033,1
4,7,3,1,2,1.01,2.3018505,0
4,8,1,2,2,1.008,0.815993250000247,1
4,9,1,2,2,1.001,43.7606747500004,1
4,10,3,2,2,0.996,1.4864659169998,1
4,11,3,2,2,0.998,0.516046249999818,1
4,12,1,2,2,0.998,0.824954417000299,1
4,13,3,1,1,1,1.7468871659994,1
4,14,2,1,1,1,1.41066241700082,1
4,15,3,2,2,0.995,1.96837512500042,1
4,16,2,2,2,1.007,0.944223999999849,1
4,17,1,2,2,1.001,0.614969958000074,1
4,18,3,2,2,1.002,0.503125291999822,1
4,19,2,2,2,1.002,0.54679862499961,1
4,20,1,1,2,1.002,0.547835625000516,0
4,21,3,2,2,1.002,0.539868916999694,1
4,22,2,1,2,0.732,1.81018791600036,0
4,23,1,2,2,1,2.24107100000037,1
4,24,3,1,1,0.992,1.18487279100009,1
4,25,1,2,1,0.992,0.868982750000214,0
4,26,2,1,1,0.994,0.568909499999791,1
4,27,3,2,2,1.01,1.66620212499947,1
4,28,1,2,1,1,1.30188787499992,0
4,29,1,1,1,1,0.832323458000246,1
4,30,3,1,1,1,0.580490792000091,1
4,31,1,1,2,1.002,1.53685687500001,0
4,32,3,1,1,1,1.32672212499983,1
4,33,1,2,1,0.594,2.25679349999973,0
4,34,3,2,1,0.998,1.31969587499952,0
4,35,2,2,2,0.994,1.71667258399975,1
4,36,3,1,1,0.998,1.80824587499956,1
4,37,1,1,1,0.998,0.857198874999995,1
4,38,1,2,2,1.016,1.74162274999981,1
4,39,1,2,2,1.02,0.853112124999825,1
4,40,2,1,2,1.016,1.09884658299961,0
4,41,1,1,1,1,1.77119416700043,1
4,42,3,2,2,1.011,1.63222583300012,1
4,43,1,2,2,1.014,1.23129383300056,1
4,44,1,2,2,1.014,0.855584000000817,1
4,45,1,2,2,1.018,1.22204891699948,1
4,46,2,2,2,1.004,1.02713270899949,1
4,47,3,1,1,1,1.4967162920002,1
4,48,2,1,1,1,1.10157795900068,1
4,49,1,1,1,0.997,0.946640000000116,1
4,50,1,2,1,0.741,1.98211912500028,0
4,1,2,2,2,0.992,1.90272741700028,1
4,2,2,1,1,0.834,1.47337383400009,1
4,3,2,1,1,0.994,1.09617533399978,1
4,4,3,1,1,1,1.33597925000049,1
4,5,2,1,1,1,1.20179341700077,1
4,6,2,2,1,0.694,1.32605083300041,0
4,7,1,1,1,1,1.31296999999995,1
4,8,1,1,1,1,1.16712916599954,1
4,9,1,1,1,1,0.822348125000644,1
4,10,3,2,2,0.875,1.54456525000023,1
4,11,1,2,1,0.614,2.6191740409995,0
4,12,1,1,1,1,1.32445879200077,1
4,13,3,2,1,1,0.997918457999731,0
4,14,2,1,1,1,0.756658584000434,1
4,15,2,2,1,1,0.673588625000775,0
4,16,2,1,1,1,0.779061415999422,1
4,17,3,2,1,1,1.06618079100008,0
4,18,1,2,2,0.991,2.12166724999952,1
4,19,2,1,1,1,1.51456299999973,1
4,20,1,2,1,1,0.917602417000126,0
4,21,3,1,1,1,0.636441833999925,1
4,22,1,1,2,0.588,1.78879620799944,0
4,23,2,2,2,0.602,1.75494570800038,1
4,24,2,1,1,1,1.43974779199925,1
4,25,2,2,2,0.62,1.70536345900018,1
4,26,2,2,2,1,1.48416574999919,1
4,27,1,2,2,0.986,1.80115216700051,1
4,28,1,2,2,1.028,1.87638945900017,1
4,29,3,1,1,1,51.3573726249997,1
4,30,1,2,2,1.004,1.53263262499968,1
4,31,2,2,2,1.004,0.675580625000293,1
4,32,1,2,2,1.004,0.601452083999902,1
4,33,3,2,2,1.001,1.20283274999929,1
4,34,1,1,2,1.001,12.0210246670003,0
4,35,1,1,2,1.002,0.661618707999878,0
4,36,2,2,2,1.004,0.712669167000058,1
4,37,3,1,1,0.997,1.58683687499979,1
4,38,3,1,1,1,0.984795542000029,1
4,39,1,1,1,1,0.705379166999592,1
4,40,2,1,1,1,0.912937375000183,1
4,41,3,1,1,1,0.825022207999609,1
4,42,3,1,1,1,0.563477792000413,1
4,43,1,2,1,1,0.594509042000027,0
4,44,1,1,1,1,0.872163209000064,1
4,45,2,2,2,0.622,2.11113129100067,1
4,46,2,1,1,1,1.43403837499955,1
4,47,3,2,2,0.562,2.58375654200063,1
4,48,2,2,1,0.567,2.83642220799993,0
4,49,3,2,2,1.024,1.26455633300066,1
4,50,2,2,2,0.999,1.20024979200025,1
4,1,1,2,2,1.007,1.29250458399929,1
4,2,2,1,1,0.999,1.51200687500022,1
4,3,2,1,1,1,1.11281479099944,1
4,4,1,1,1,1,0.735972250000486,1
4,5,2,1,1,0.997,81.7467726670011,1
4,6,1,2,2,0.587,1.71101575000102,1
4,7,3,1,1,1,1.21351187499931,1
4,8,3,2,1,1,0.92164799999955,0
4,9,3,1,1,1,0.794949834000363,1
4,10,2,2,2,1.005,32.2529378750005,1
4,11,3,1,1,0.997,1.511452499999,1
4,12,2,2,2,0.996,1.85132120900016,1
4,13,2,2,2,1.001,1.06940483299877,1
4,14,3,2,2,1.001,0.826690457999575,1
4,15,2,2,2,1.001,37.3988920840002,1
4,16,1,1,1,0.995,1.32510874999934,1
4,17,2,2,2,0.978,1.65573374999985,1
4,18,1,1,1,0.993,1.23229474999971,1
4,19,3,2,2,0.992,1.35052670799996,1
4,20,1,2,2,0.997,26.5922997919988,1
4,21,2,2,2,0.999,1.01265029200113,1
4,22,3,1,1,0.992,1.95239620900065,1
4,23,2,1,1,1,1.17519100000027,1
4,24,1,2,2,0.99,2.16591733300083,1
4,25,2,2,2,1.009,22.702377915999,1
4,26,3,2,2,1.012,0.636570500000744,1
4,27,1,2,2,0.887,2.08752545900097,1
4,28,1,2,2,0.997,1.42446849999942,1
4,29,1,2,2,0.994,0.879932167001243,1
4,30,2,1,2,0.997,2.14579754099941,0
4,31,2,2,2,0.997,0.646406625000964,1
4,32,3,2,2,0.997,0.676690374999453,1
4,33,2,1,1,0.586,1.75316550000025,1
4,34,1,2,2,0.995,1.54549533300087,1
4,35,1,1,1,1,29.7758851669987,1
4,36,3,1,1,1,0.907322875000318,1
4,37,2,1,1,1,0.553918749999866,1
4,38,3,2,2,1.013,1.48938820799958,1
4,39,1,1,1,0.592,2.19757583399951,1
4,40,2,1,1,1,1.27117008300047,1
4,41,2,1,1,1,0.824175875000947,1
4,42,3,2,2,1.005,1.71021083399864,1
4,43,3,2,2,1.004,0.626011166999888,1
4,44,1,2,1,0.605,2.1744209160006,0
4,45,1,1,1,1,1.50350391699976,1
4,46,2,1,1,0.992,1.16721754100035,1
4,47,3,2,2,1.004,7.48038350000024,1
4,48,2,1,1,1,1.67750233299921,1
4,49,3,2,2,0.991,1.6216008750016,1
4,50,3,1,1,1,1.48751487499976,1
4,1,2,1,1,0.998,1.38421262500015,1
4,2,3,2,2,1.008,1.68531195800097,1
4,3,1,1,1,0.992,1.41154325000025,1
4,4,1,2,2,0.996,1.53573595899979,1
4,5,1,1,1,0.994,1.27909383400038,1
4,6,2,2,2,1.007,1.54405308399873,1
4,7,3,1,1,0.748,1.77546249999978,1
4,8,2,1,2,0.651,1.48800699999993,0
4,9,3,1,1,0.995,1.13485462499921,1
4,10,2,2,2,0.991,1.29149741600122,1
4,11,2,2,2,0.994,0.802884291999362,1
4,12,1,2,2,0.998,23.5508669999999,1
4,13,1,1,1,0.807,1.47457254100118,1
4,14,2,1,1,1,1.13989320800101,1
4,15,1,1,1,1,0.731011666999621,1
4,16,2,2,2,1.002,1.38258341699839,1
4,17,3,2,2,1.002,0.783450458000516,1
4,18,3,2,2,1.002,0.593857374999061,1
4,19,2,1,1,0.592,1.41244604100029,1
4,20,3,1,1,1,1.9577978340003,1
4,21,1,2,2,1,1.35868954199941,1
4,22,1,1,1,0.604,1.43958454099993,1
4,23,1,1,2,0.643,1.93452166699899,0
4,24,1,2,1,0.596,1.61944737500016,0
4,25,3,2,2,1.002,20.1060521250001,1
4,26,1,1,1,0.991,1.5407457500005,1
4,27,1,2,1,1,1.28175662499962,0
4,28,2,1,1,1,0.66138008300004,1
4,29,2,2,2,0.582,1.80567812499976,1
4,30,3,1,1,1,1.38568566700087,1
4,31,2,1,1,1,1.30276795799909,1
4,32,2,1,1,1,1.20214133399895,1
4,33,3,1,1,0.998,0.976096708000114,1
4,34,3,2,2,0.601,1.45901591700022,1
4,35,2,2,1,0.6,1.47707312499915,0
4,36,3,2,2,0.995,14.8117332500005,1
4,37,1,2,2,1.009,1.53782175000015,1
4,38,2,2,2,0.992,0.899478040999384,1
4,39,3,2,2,0.996,0.569713124999907,1
4,40,1,2,2,0.996,0.609344583001075,1
4,41,1,2,2,0.996,0.649469500000123,1
4,42,1,1,2,0.996,0.793761041000835,0
4,43,3,1,1,0.554,2.24149749999924,1
4,44,1,2,2,0.983,1.62709870899926,1
4,45,3,2,2,0.99,0.844394042000204,1
4,46,1,1,2,0.996,0.912955541998599,0
4,47,2,2,2,0.996,0.747409249999691,1
4,48,2,1,1,0.542,1.7227397079987,1
4,49,2,1,2,0.625,1.48457274999964,0
4,50,1,1,2,1.001,13.478886750001,0
4,1,3,2,2,1.008,1.53881733299932,1
4,2,3,2,2,1.008,0.608805625000969,1
4,3,3,2,2,1.008,0.600929584001278,1
4,4,2,1,1,0.578,1.36738804200104,1
4,5,2,1,1,0.577,1.06868450000002,1
4,6,1,1,2,0.617,3.3877702080008,0
4,7,1,1,1,0.603,1.81260241700147,1
4,8,3,1,1,0.998,1.66356170799918,1
4,9,1,2,2,0.632,2.30329870800051,1
4,10,2,1,1,0.999,1.56674324999949,1
4,11,2,1,1,0.99,1.25433662500109,1
4,12,1,1,1,0.992,0.593191666999701,1
4,13,1,1,1,1,45.9921327499997,1
4,14,3,2,2,1.006,1.99730445799833,1
4,15,1,1,1,1,1.85338112499994,1
4,16,3,2,2,1.001,1.39878450000106,1
4,17,2,1,1,1,1.85189266599991,1
4,18,1,1,1,1,1.23936595899977,1
4,19,2,2,2,0.995,1.61873979200027,1
4,20,3,1,1,0.993,1.50065333400016,1
4,21,2,2,2,0.997,1.27631337499952,1
4,22,2,1,1,1,1.53398754200134,1
4,23,2,2,2,0.998,60.9773687920006,1
4,24,1,2,2,1.006,0.898667457999181,1
4,25,1,2,2,1.005,0.551233083000625,1
4,26,1,2,2,1.005,0.682844958000715,1
4,27,2,1,1,1,1.79239254200002,1
4,28,3,1,1,0.996,1.34090137500061,1
4,29,2,1,1,0.991,1.22307779199946,1
4,30,2,1,1,1,1.20643233300143,1
4,31,1,1,1,1,1.29321291700035,1
4,32,1,1,1,1,1.16966970900103,1
4,33,3,2,2,1.008,1.95166704200165,1
4,34,3,1,1,1,36.6305909169987,1
4,35,3,1,1,1,0.964679124999748,1
4,36,1,2,1,1,0.634005249999973,0
4,37,2,1,1,1,0.593918082999153,1
4,38,1,2,1,1,2.08864837500005,0
4,39,3,2,2,0.588,1.50822154200068,1
4,40,2,2,2,1.015,1.39166400000067,1
4,41,1,2,1,0.591,1.85752945900094,0
4,42,1,2,1,1,1.14142474999971,0
4,43,3,1,1,1,0.862563040998793,1
4,44,3,2,2,1.01,1.54673812500005,1
4,45,2,2,2,1.003,1.08613970899933,1
4,46,1,2,2,1.003,0.677804375000051,1
4,47,1,1,2,1.003,0.726146625000183,0
4,48,1,1,2,1.014,1.16931049999948,0
4,49,1,2,1,0.571,1.69943666600011,0
4,50,3,2,2,0.991,1.36012575000132,1
4,1,3,2,2,1.01,1.27851079100037,1
4,2,2,1,1,0.996,1.50138220900044,1
4,3,2,2,1,0.983,2.07202083299853,0
4,4,1,2,2,0.994,1.365094959001,1
4,5,3,1,1,1,1.63861254100084,1
4,6,1,1,1,0.616,2.52672170900041,1
4,7,1,1,1,1,1.55634525000096,1
4,8,1,1,1,0.697,1.59107737500017,1
4,9,2,1,1,1,1.32887937499981,1
4,10,3,1,1,0.999,0.701069292001193,1
4,11,2,2,2,0.653,1.47034483300013,1
4,12,1,2,2,1.003,2.17535933299951,1
4,13,2,1,1,1,1.36952704100077,1
4,14,3,1,1,0.99,1.07098841600055,1
4,15,1,2,1,0.989,1.0902394170007,0
4,16,3,2,2,1.01,1.61649354199835,1
4,17,1,2,2,1.009,0.67197670799942,1
4,18,3,1,2,1.009,0.551227416999609,0
4,19,1,2,1,0.554,2.41742841700034,0
4,20,3,1,1,1,1.3102018339996,1
4,21,3,1,1,1,0.630340790999981,1
4,22,1,1,1,1,0.57343687499997,1
4,23,2,2,2,1.011,1.44043112500003,1
4,24,1,2,2,0.984,0.86129054200137,1
4,25,2,1,1,0.994,1.53699741700075,1
4,26,2,2,2,0.96,1.51336512499984,1
4,27,2,2,2,0.99,1.18344554199939,1
4,28,1,1,1,0.989,1.55020612500084,1
4,29,2,2,2,1.005,1.59788308300085,1
4,30,2,1,1,0.576,1.59077291600079,1
4,31,3,1,1,0.998,1.17473354100002,1
4,32,3,2,2,1.013,1.27985737500057,1
4,33,1,1,1,0.551,1.67982241699974,1
4,34,3,1,1,0.983,1.29915954200078,1
4,35,2,2,2,0.999,1.53559383399988,1
4,36,1,1,1,0.538,1.37405625000065,1
4,37,1,2,1,0.533,1.2289669999991,0
4,38,1,2,2,0.529,1.73554733400124,1
4,39,1,2,1,0.551,2.775540790999,0
4,40,1,2,2,0.554,1.24586020899915,1
4,41,3,1,2,1.007,1.77679745900059,0
4,42,2,1,2,1,0.77557270899888,0
4,43,3,2,1,0.541,2.50044258300113,0
4,44,1,1,2,0.994,1.25445945899992,0
4,45,2,1,2,0.993,0.90497887499987,0
4,46,1,2,2,0.993,0.873002791000545,1
4,47,3,1,1,1,1.37216533399987,1
4,48,2,2,2,0.542,1.71184374999939,1
4,49,3,1,1,0.989,2.45438958399973,1
4,50,3,2,2,1.009,1.66395825000109,1
4,1,1,2,2,0.606,2.35600333299953,1
4,2,2,1,1,1,1.30169358300009,1
4,3,3,1,1,1,0.948372834000111,1
4,4,2,1,1,1,0.979762124999979,1
4,5,3,2,1,1,0.960430582999834,0
4,6,3,2,2,1.029,1.60343729099986,1
4,7,1,2,1,0.532,1.89265291599986,0
4,8,1,1,2,0.602,1.19993929100019,0
4,9,2,2,2,1.004,1.18156295900008,1
4,10,3,2,2,0.994,0.647062500000175,1
4,11,1,1,1,1,1.55703795799855,1
4,12,3,2,2,1.011,2.42605266700048,1
4,13,3,2,2,1.007,0.512755040999764,1
4,14,2,2,2,1.007,0.54363800000101,1
4,15,2,1,2,1.007,0.602105457999642,0
4,16,1,1,2,1.007,0.610667291999562,0
4,17,1,2,1,1,1.76823812500152,0
4,18,2,2,2,1.019,1.33195279199936,1
4,19,1,1,1,0.785,1.41095466700062,1
4,20,3,1,1,0.995,1.29306020800141,1
4,21,3,2,2,1.014,2.01297912500013,1
4,22,1,1,2,1.01,0.87192716699974,0
4,23,2,1,1,1,1.20909670800029,1
4,24,3,2,2,0.561,2.25714945899927,1
4,25,1,2,2,0.906,1.943380875,1
4,26,1,2,2,0.987,1.05605812499925,1
4,27,3,2,2,0.989,0.793127584000104,1
4,28,1,2,2,1,0.770815624999159,1
4,29,1,1,1,1,1.3696991249999,1
4,30,3,1,1,1,1.35775700000158,1
4,31,1,2,2,0.568,3.3846926669994,1
4,32,2,1,2,0.935,1.38820020899948,0
4,33,3,2,2,0.958,1.36763008399976,1
4,34,3,2,2,0.997,0.870139458000267,1
4,35,3,2,2,0.994,0.735014208999928,1
4,36,2,1,1,0.884,1.4753195839985,1
4,37,3,2,2,0.979,1.60788312499972,1
4,38,3,1,1,0.842,1.31243995899968,1
4,39,1,2,2,1.021,1.7846177499996,1
4,40,1,1,1,0.982,1.4039367080004,1
4,41,2,2,2,0.987,1.11893095800042,1
4,42,2,1,1,0.605,1.69845129200075,1
4,43,2,2,2,0.794,1.04563762499856,1
4,44,3,1,1,1,1.62460437499976,1
4,45,1,2,2,1.022,1.15582529100175,1
4,46,2,2,1,0.897,1.40120070900048,0
4,47,1,1,1,0.993,0.908440208999309,1
4,48,2,2,2,0.727,1.08626187500158,1
4,49,3,1,1,0.998,1.44340679200104,1
4,50,3,1,1,0.998,1.41449074999946,1
4,1,3,2,2,1.003,1.25665287500124,1
4,2,2,2,2,1.008,0.96797558399885,1
4,3,1,1,1,0.669,1.28609791700001,1
4,4,3,2,2,0.726,1.13670837500104,1
4,5,3,1,1,0.871,1.64893137499894,1
4,6,1,1,2,0.653,1.62272354200104,0
4,7,2,1,1,0.995,2.65420470800018,1
4,8,3,2,2,1.003,2.95181516599951,1
4,9,3,1,1,0.996,1.23725824999929,1
4,10,1,1,2,0.581,2.2935517499991,0
4,11,3,1,1,1,1.32069104199945,1
4,12,2,2,1,1,0.800974249999854,0
4,13,3,1,1,1,0.478286957999444,1
4,14,3,1,1,1,0.513053374999799,1
4,15,2,2,1,1,0.589008207998631,0
4,16,2,1,2,0.59,1.35367341700112,0
4,17,2,1,1,1,1.40617495799961,1
4,18,1,2,2,0.563,1.44081637499949,1
4,19,1,2,2,0.527,1.24024162499882,1
4,20,2,2,2,0.577,1.1502359999995,1
4,21,1,1,2,0.598,1.51312845800021,0
4,22,3,2,2,1,1.42452904099991,1
4,23,3,1,1,1,1.3603062910006,1
4,24,2,1,1,0.654,2.19200495899895,1
4,25,2,2,2,0.895,1.37356550000004,1
4,26,2,2,2,0.998,1.05487762499979,1
4,27,3,1,1,0.965,1.03052945799936,1
4,28,1,1,1,0.953,0.75228183299987,1
4,29,1,2,2,0.673,1.50876337500085,1
4,30,1,1,2,0.683,1.05758141600018,0
4,31,1,1,1,0.599,1.38768179100043,1
4,32,3,2,2,0.916,1.22160691700083,1
4,33,3,1,1,0.989,1.45272083300006,1
4,34,2,1,1,0.999,1.1178476669993,1
4,35,1,2,2,0.999,1.44692391699937,1
4,36,2,2,2,0.999,0.76541329200154,1
4,37,1,1,2,0.999,0.817588042000352,0
4,38,3,1,1,0.996,1.51813637499981,1
4,39,3,1,1,0.996,0.655273332999059,1
4,40,1,1,1,0.996,0.634833332998824,1
4,41,1,2,2,1.009,1.3752915419991,1
4,42,3,2,2,0.999,1.06199666599969,1
4,43,1,1,1,0.994,1.40836558299998,1
4,44,3,2,2,1.002,1.1922838749997,1
4,45,2,1,1,0.994,1.67086033300075,1
4,46,1,2,2,0.995,1.38401537500067,1
4,47,1,2,2,0.993,0.663665292000587,1
4,48,2,1,1,1,1.50405666699953,1
4,49,2,1,1,0.629,1.95934599999964,1
4,50,3,2,2,1.01,1.47240166700067,1
5,1,3,1,1,0.879,6.15982887500104,1
5,2,1,1,2,0.615,1.91751066600045,0
5,3,2,2,2,0.745,1.27525650000098,1
5,4,2,2,2,0.772,1.03885274999993,1
5,5,2,2,2,0.655,2.62598645899925,1
5,6,2,1,1,0.802,1.49323754199941,1
5,7,1,2,2,0.583,1.63893520800048,1
5,8,1,1,2,0.583,1.69556595799986,0
5,9,2,2,2,0.698,1.8879071249994,1
5,10,3,2,2,0.869,1.26949983400118,1
5,11,1,1,2,0.871,1.08969370799969,0
5,12,3,1,1,0.988,2.09613483400062,1
5,13,2,2,2,0.7,4.26518479200058,1
5,14,3,2,2,0.995,1.45518829199864,1
5,15,3,2,2,0.995,0.464511583000785,1
5,16,2,2,2,0.899,1.2101240840002,1
5,17,3,1,1,1,1.67081049999979,1
5,18,3,1,1,1,0.918443915999887,1
5,19,1,1,2,0.527,2.55964808299905,0
5,20,1,2,1,0.508,1.42592745799993,0
5,21,3,1,1,0.998,2.13522287500018,1
5,22,1,2,2,0.605,1.79884645899983,1
5,23,2,1,1,0.973,2.37137949999851,1
5,24,2,2,1,0.949,1.0520012500001,0
5,25,2,2,1,0.599,2.53032212499966,0
5,26,3,2,2,1.023,2.57901516700076,1
5,27,1,1,2,0.589,1.61416954099877,0
5,28,3,2,2,0.998,1.55164816700017,1
5,29,2,1,1,0.873,2.1225979589999,1
5,30,1,2,2,0.517,2.50240045900136,1
5,31,3,2,2,1.002,1.54125066699999,1
5,32,2,1,2,0.948,1.85371750000013,0
5,33,1,1,1,0.518,2.44661308300056,1
5,34,3,2,2,0.962,1.71712174999993,1
5,35,1,2,2,0.542,1.57032304099994,1
5,36,2,1,1,0.81,1.40843170799963,1
5,37,3,2,2,0.984,1.82268758300052,1
5,38,1,2,1,0.874,2.89590670800135,0
5,39,3,2,2,0.98,2.30309300000044,1
5,40,1,1,1,0.677,1.82304975000079,1
5,41,3,1,2,0.959,1.63155537500097,0
5,42,3,1,1,0.993,1.86526883400074,1
5,43,2,2,2,0.968,1.76288025000031,1
5,44,1,1,1,0.747,1.72892779100039,1
5,45,2,1,1,0.747,1.04548904199874,1
5,46,3,1,1,0.747,0.474444791001588,1
5,47,3,1,1,0.983,1.27374241699908,1
5,48,1,2,2,0.818,1.17925120899963,1
5,49,1,2,1,0.725,1.171225125001,0
5,50,1,2,2,0.739,0.963769416999639,1
5,1,2,2,2,0.746,0.868495249998887,1
5,2,3,2,2,0.983,1.4198807089997,1
5,3,3,2,2,0.983,0.549616999998761,1
5,4,3,2,2,0.983,0.590403666999919,1
5,5,1,2,2,0.983,0.690076208000391,1
5,6,1,1,2,0.983,0.783557167000254,0
5,7,3,2,2,0.983,0.468118875000073,1
5,8,2,1,1,0.589,2.90536337500089,1
5,9,1,2,2,0.596,1.83660283299832,1
5,10,3,2,2,1.002,2.05938370799959,1
5,11,2,1,2,0.804,1.81225712499872,0
5,12,2,2,2,0.803,0.796724624999115,1
5,13,2,2,2,0.803,1.37045241700071,1
5,14,2,2,1,0.565,2.15286845899936,0
5,15,2,1,1,0.595,1.6857629999995,1
5,16,2,1,1,0.634,1.4017880829997,1
5,17,2,1,2,0.602,2.21387445800065,0
5,18,3,2,2,0.957,1.75184829199861,1
5,19,1,2,2,0.516,4.14443008299895,1
5,20,1,2,1,0.516,1.59518520900019,0
5,21,2,2,2,0.688,1.46184516600078,1
5,22,2,2,2,0.688,1.58328708299996,1
5,23,2,2,1,0.547,1.67821979200016,0
5,24,3,2,2,0.933,1.50393412499943,1
5,25,2,2,2,0.933,0.574461624999458,1
5,26,3,2,2,0.933,0.505970917000013,1
5,27,1,1,1,0.738,1.78563699999904,1
5,28,1,1,2,0.643,3.3576662079995,0
5,29,3,1,2,0.838,1.31947066700013,0
5,30,3,1,1,0.981,1.92547612499948,1
5,31,1,1,1,0.688,3.76093387500077,1
5,32,3,2,2,0.976,2.00030141699972,1
5,33,3,1,1,0.996,2.31031800000164,1
5,34,2,1,1,0.996,0.550624625000637,1
5,35,2,1,1,0.996,0.608285666001393,1
5,36,1,2,1,0.768,2.07290470800035,0
5,37,2,2,1,0.723,1.07293633399968,0
5,38,1,2,1,0.723,0.638813792000292,0
5,39,2,1,1,0.534,2.20004399999925,1
5,40,3,1,1,0.978,2.28629287500007,1
5,41,1,1,1,0.978,0.937877416999982,1
5,42,3,1,1,0.978,0.434998583001288,1
5,43,3,2,2,1.001,2.36083683300058,1
5,44,1,2,1,0.613,1.41552841699922,0
5,45,1,2,2,0.597,1.0127709999997,1
5,46,2,1,1,0.633,1.28467770899988,1
5,47,3,2,2,0.957,1.76873033300035,1
5,48,2,1,1,0.623,2.31876437500068,1
5,49,1,1,1,0.702,1.26006070800031,1
5,50,1,1,1,0.769,1.11929966699972,1
5,1,1,1,1,0.778,1.82993904099931,1
5,2,3,1,1,0.993,1.86604291600088,1
5,3,3,2,2,0.989,1.74775154199961,1
5,4,1,2,2,0.619,2.26042558300105,1
5,5,2,1,2,0.719,1.51111866700012,0
5,6,3,2,2,1.001,1.7499434579986,1
5,7,3,1,1,1,1.99192975000005,1
5,8,3,2,2,0.993,2.11789637499896,1
5,9,2,1,1,0.623,2.0461609160011,1
5,10,3,2,2,0.968,2.09523187500054,1
5,11,2,2,2,0.734,2.25420958300128,1
5,12,3,1,1,0.607,4.34183908399973,1
5,13,1,2,2,0.852,1.98144470800071,1
5,14,1,1,1,0.727,1.54959283300013,1
5,15,1,1,1,0.841,1.18397483300032,1
5,16,1,2,1,0.841,0.614734333001252,0
5,17,3,2,2,1.017,2.38907362499958,1
5,18,3,2,2,0.991,1.0291654169996,1
5,19,3,2,2,0.991,0.526339582998844,1
5,20,1,2,2,0.991,0.794977040999584,1
5,21,2,2,2,0.716,3.83414512499985,1
5,22,3,1,1,1,3.11692283400043,1
5,23,1,2,2,0.934,2.02717854199909,1
5,24,1,1,1,1,1.71934500000134,1
5,25,3,2,2,0.965,1.64616291600032,1
5,26,3,2,2,0.963,0.798483667000255,1
5,27,1,2,2,0.963,0.777525541001523,1
5,28,1,1,1,0.954,1.52184175000002,1
5,29,2,1,2,0.868,1.37974091700016,0
5,30,3,2,2,0.868,0.900690458000099,1
5,31,2,1,1,0.76,1.27046337499996,1
5,32,2,2,2,0.879,1.61516041700088,1
5,33,3,2,2,0.991,1.36937074999878,1
5,34,1,2,2,0.859,1.62358424999911,1
5,35,3,2,2,0.995,0.887153124998804,1
5,36,3,1,2,0.984,0.88490691700099,0
5,37,1,2,2,0.752,1.58656779200101,1
5,38,3,2,2,0.972,1.15895674999956,1
5,39,2,1,2,0.605,2.7667110830007,0
5,40,3,1,1,0.626,1.62749287500083,1
5,41,3,1,1,0.892,1.30300620900016,1
5,42,1,1,2,0.578,2.38757654099936,0
5,43,1,2,2,0.578,1.18329237499893,1
5,44,1,2,2,0.578,0.606268083998657,1
5,45,1,1,1,0.702,1.3050621250004,1
5,46,1,2,2,0.556,1.43116841700066,1
5,47,1,1,2,0.623,0.973610041999564,0
5,48,1,2,2,0.505,2.28025600000001,1
5,49,2,2,2,0.601,1.40442404100031,1
5,50,2,1,1,0.768,1.29449945899978,1
5,1,1,2,2,0.713,1.30650349999996,1
5,2,3,1,1,1,2.69449887500014,1
5,3,3,2,2,0.985,1.76044462499885,1
5,4,3,2,2,0.985,0.606937417000154,1
5,5,3,2,2,0.985,0.53186050000113,1
5,6,3,1,1,0.991,1.75213749999966,1
5,7,3,2,2,0.982,1.90958054200019,1
5,8,2,2,2,0.737,1.99681183299981,1
5,9,3,2,2,0.847,2.35647729099946,1
5,10,2,1,2,0.751,2.99857895799869,0
5,11,2,1,1,0.777,1.30289795899989,1
5,12,1,1,2,0.584,1.63742841699968,0
5,13,1,2,2,0.584,0.812259750000521,1
5,14,3,2,2,0.969,1.41909574999954,1
5,15,1,2,2,0.523,1.94514462500047,1
5,16,2,2,2,0.608,1.35216008299903,1
5,17,3,1,1,1,1.55972404200111,1
5,18,1,2,2,0.687,2.13216820799971,1
5,19,3,2,2,0.503,3.17382620899843,1
5,20,1,2,2,0.537,1.36362220800038,1
5,21,2,2,2,0.537,0.888256541998999,1
5,22,3,2,2,0.626,1.18371012500029,1
5,23,2,1,2,0.545,1.88792187499894,0
5,24,1,1,1,0.695,1.48413945799985,1
5,25,2,1,1,0.823,1.28624370800026,1
5,26,2,1,2,0.626,2.16204683399883,0
5,27,2,2,2,0.72,1.26001662499948,1
5,28,1,2,2,0.564,1.77479133300039,1
5,29,3,2,2,0.957,1.47870170799979,1
5,30,3,1,2,1.002,2.03437649999978,0
5,31,2,2,1,0.801,1.54981670800044,0
5,32,2,2,2,0.516,1.4377376249995,1
5,33,1,1,1,0.61,1.14379858299981,1
5,34,2,2,2,0.6,1.20511212499878,1
5,35,3,1,2,0.6,0.831532541998968,0
5,36,1,2,2,0.6,0.663583583998843,1
5,37,2,2,2,0.6,0.800324290999924,1
5,38,3,2,2,0.878,1.20661841600122,1
5,39,1,1,2,0.594,2.2881854999996,0
5,40,2,2,2,0.78,1.22106045799956,1
5,41,2,1,1,0.505,2.11236925000048,1
5,42,1,2,1,0.508,1.20474449999892,0
5,43,3,1,2,0.97,1.69421808299921,0
5,44,2,1,1,0.654,1.48108729200067,1
5,45,3,2,2,0.933,1.60646899999847,1
5,46,2,2,2,0.933,0.58309029100019,1
5,47,1,2,2,0.745,1.26482987499912,1
5,48,1,1,1,0.735,3.29301904199929,1
5,49,3,2,2,1.01,1.89036137499897,1
5,50,1,2,2,0.744,1.2685697500001,1
5,1,2,1,2,0.722,2.40449187500053,0
5,2,3,1,2,0.983,1.46290312500059,0
5,3,3,1,2,0.977,1.47384612499991,0
5,4,3,1,1,0.643,2.68645441599983,1
5,5,2,1,1,0.67,2.14445945799889,1
5,6,3,1,1,0.666,0.795087999998941,1
5,7,3,2,2,0.98,1.98650525000085,1
5,8,3,1,1,0.99,5.75515891599935,1
5,9,3,2,2,1.014,1.90034920899961,1
5,10,3,2,2,1.014,0.581702457999199,1
5,11,2,2,2,1.014,0.531667875000494,1
5,12,1,2,2,1.014,0.609052834000977,1
5,13,2,1,1,0.856,1.63755525000124,1
5,14,1,1,1,0.856,0.972261750001053,1
5,15,1,1,1,0.856,0.80241904200011,1
5,16,3,2,2,0.996,1.84993841699907,1
5,17,2,2,2,0.994,0.527032415999201,1
5,18,1,2,2,0.993,0.554264041000351,1
5,19,2,1,1,0.563,1.99994929199966,1
5,20,2,2,2,0.608,1.34884533400145,1
5,21,1,2,2,0.608,0.607521082998574,1
5,22,2,1,2,0.739,0.935723874999894,0
5,23,1,1,1,0.551,1.7191870409988,1
5,24,3,2,2,0.975,1.81486879099975,1
5,25,2,2,2,0.659,0.87717558300028,1
5,26,2,2,1,0.571,1.38741262499934,0
5,27,1,1,2,0.645,0.940765416999056,0
5,28,3,1,2,0.975,1.41482633300075,0
5,29,1,2,2,0.577,2.7011307089997,1
5,30,3,2,1,0.55,1.72642695799914,0
5,31,3,1,1,0.932,2.07196012500026,1
5,32,1,2,2,0.566,1.73115187499934,1
5,33,2,2,2,0.747,1.48171741699844,1
5,34,1,2,1,0.63,1.19260399999985,0
5,35,3,1,1,0.923,1.05476350000026,1
5,36,3,2,2,0.968,1.91037016600058,1
5,37,2,2,2,0.699,2.10461891600062,1
5,38,1,1,2,0.699,1.03531520899924,0
5,39,2,2,2,0.638,1.50401579200116,1
5,40,3,2,1,0.524,2.19478554200032,0
5,41,3,2,2,0.795,1.33290633299839,1
5,42,3,2,2,0.891,0.997908125000322,1
5,43,2,2,2,0.7,2.04016545900049,1
5,44,1,1,2,0.525,1.83627375000106,0
5,45,1,2,2,0.525,0.565740374999223,1
5,46,2,2,2,0.582,1.29798549999941,1
5,47,1,2,2,0.518,1.22817108300114,1
5,48,2,2,2,0.571,1.42044274999898,1
5,49,2,2,2,0.619,1.33551087500018,1
5,50,2,2,1,0.529,1.07741612499922,0
5,1,1,2,1,0.69,1.69958179099922,0
5,2,1,1,1,0.69,0.626356082999337,1
5,3,1,1,1,0.69,0.52394004099915,1
5,4,2,1,1,0.585,2.36785708299976,1
5,5,2,1,2,0.628,1.03343975000098,0
5,6,1,1,1,0.654,1.0576707500004,1
5,7,3,1,1,0.914,2.19946458400045,1
5,8,1,1,1,0.596,1.8239369999992,1
5,9,1,1,1,0.596,0.799556292000489,1
5,10,1,2,1,0.511,2.44225216700033,0
5,11,1,1,2,0.576,1.07192658300119,0
5,12,2,1,1,0.609,1.08936362500026,1
5,13,1,1,1,0.609,0.647729166001227,1
5,14,1,1,1,0.632,1.01258529200095,1
5,15,1,2,2,0.548,1.1892541670004,1
5,16,2,1,1,0.542,1.00041124999916,1
5,17,2,1,1,0.542,0.643681042000026,1
5,18,3,2,2,0.844,1.05646937500023,1
5,19,1,2,2,0.786,1.02562737500011,1
5,20,2,1,1,0.622,1.79144124999948,1
5,21,1,1,2,0.632,0.993232291000822,0
5,22,2,2,2,0.632,0.886723625000741,1
5,23,1,2,2,0.557,1.4344172910005,1
5,24,1,1,1,0.64,2.17368266700032,1
5,25,1,1,2,0.562,1.58434895800019,0
5,26,2,2,2,0.615,1.21291070900043,1
5,27,3,2,2,0.84,1.28107183300017,1
5,28,2,1,1,0.764,1.36801433300025,1
5,29,1,2,2,0.716,1.19959541699973,1
5,30,1,2,1,0.722,1.07310270800008,0
5,31,1,2,1,0.513,1.80933504200038,0
5,32,2,1,2,0.613,0.862942250001652,0
5,33,1,2,2,0.507,1.58376412500002,1
5,34,3,2,2,0.991,1.45044795899958,1
5,35,2,2,2,0.625,1.14594408399898,1
5,36,1,2,2,0.582,0.977920000001177,1
5,37,3,2,1,0.997,1.79446629200174,0
5,38,1,2,2,0.521,1.78954033300033,1
5,39,2,1,1,0.675,1.31293116699999,1
5,40,1,1,1,0.675,0.687504874998922,1
5,41,2,1,2,0.595,1.05831812500037,0
5,42,2,2,2,0.586,0.881090208000387,1
5,43,1,1,2,0.52,2.57969879199845,0
5,44,3,2,1,1,1.44680212499952,0
5,45,2,2,2,0.788,1.09476166700006,1
5,46,3,2,2,0.788,0.617928707999454,1
5,47,2,1,1,0.551,1.77923212499991,1
5,48,1,1,1,0.551,0.581889625000258,1
5,49,1,2,2,0.608,0.8758107499998,1
5,50,2,1,1,0.721,2.16363266600092,1
5,1,2,1,2,0.683,1.62587945800078,0
5,2,2,2,2,0.634,1.10684879200016,1
5,3,2,1,1,0.54,1.13373966600011,1
5,4,2,1,1,0.54,0.570021249999627,1
5,5,1,1,1,0.623,1.4465387909986,1
5,6,1,1,1,0.703,1.38638091599933,1
5,7,3,1,1,1,2.02396691700051,1
5,8,1,1,1,1,0.650568625000233,1
5,9,2,2,2,0.623,1.18446125000082,1
5,10,1,2,1,0.649,0.873670250000941,0
5,11,2,1,1,0.649,0.945747833000496,1
5,12,2,2,2,0.699,0.987102832999881,1
5,13,3,1,1,0.955,1.16985845800082,1
5,14,3,2,2,0.976,1.62146220800059,1
5,15,3,1,1,0.987,1.49218308399941,1
5,16,2,2,2,0.631,1.39771975000076,1
5,17,3,2,2,0.631,0.589956708001409,1
5,18,2,1,1,0.613,0.867397208001421,1
5,19,1,2,2,0.561,0.785870415998943,1
5,20,2,1,1,0.667,0.715159584000503,1
5,21,1,2,2,0.65,1.11196629099868,1
5,22,1,1,1,0.664,0.799134082999444,1
5,23,2,2,2,0.64,0.793939499999397,1
5,24,2,1,1,0.579,0.753114125000138,1
5,25,3,2,2,0.668,0.569923208000546,1
5,26,2,2,2,0.695,0.888523125000575,1
5,27,3,2,2,0.879,0.929570083000726,1
5,28,1,1,1,0.789,0.998106250001001,1
5,29,3,1,1,0.901,1.04356849999931,1
5,30,3,1,1,0.972,0.796136417000525,1
5,31,3,2,2,1.011,1.33957683299923,1
5,32,3,2,2,1.011,0.503290833001302,1
5,33,1,2,2,0.794,0.907127333999597,1
5,34,2,1,1,0.633,0.92711212499853,1
5,35,3,1,1,0.848,1.21411304200046,1
5,36,3,2,2,0.886,1.67874449999908,1
5,37,2,2,2,0.79,0.846220957999321,1
5,38,3,1,1,1,1.59830258299917,1
5,39,2,2,2,0.784,1.04421366600036,1
5,40,1,1,1,0.648,0.816938416999619,1
5,41,2,1,1,0.726,0.809637666001436,1
5,42,2,2,1,0.778,0.795538958998804,0
5,43,3,2,1,0.563,1.7287579169988,0
5,44,1,2,2,0.603,0.939509042000282,1
5,45,1,1,1,0.627,0.718092875000366,1
5,46,2,1,2,0.709,1.15025199999945,0
5,47,3,1,1,0.799,0.961647999998604,1
5,48,1,1,1,0.503,1.69185887499953,1
5,49,1,2,1,0.661,0.710414957999092,0
5,50,2,1,2,0.621,1.03187316599906,0
5,1,2,2,2,0.63,1.23610533399915,1
5,2,1,2,2,0.607,0.964259667000078,1
5,3,3,2,2,0.835,1.07013095799994,1
5,4,2,2,2,0.806,0.680205541999385,1
5,5,3,2,2,0.806,0.527451082998596,1
5,6,2,2,2,0.861,0.6830246669997,1
5,7,2,1,1,0.735,1.51214133400026,1
5,8,3,1,1,0.973,1.39878558300006,1
5,9,3,1,1,0.983,6.31175604099917,1
5,10,2,1,1,0.983,0.502726583001277,1
5,11,1,1,1,0.983,0.471702291000838,1
5,12,2,1,1,0.983,0.638682791999599,1
5,13,2,2,2,0.626,1.21202441700007,1
5,14,2,1,1,0.634,0.96916795800098,1
5,15,2,2,1,0.529,1.48777637500098,0
5,16,3,1,1,0.947,1.18718975000047,1
5,17,1,1,1,0.948,0.689328790998843,1
5,18,3,1,2,0.502,2.27236166699913,0
5,19,1,1,1,0.634,1.02860370899907,1
5,20,3,2,1,0.516,1.59143241699894,0
5,21,3,2,1,0.523,1.97104879200015,0
5,22,1,1,2,0.689,1.48807491600019,0
5,23,2,2,2,0.549,1.07178699999895,1
5,24,2,1,1,0.536,0.797836875000939,1
5,25,3,2,2,0.926,1.26380145799885,1
5,26,1,1,2,0.892,1.08824366699992,0
5,27,2,2,2,0.785,0.904970583000249,1
5,28,3,2,2,0.724,0.869810958000016,1
5,29,1,1,2,0.724,0.698443750001388,0
5,30,1,2,2,0.724,0.610869750000347,1
5,31,2,2,2,0.724,0.639574499999071,1
5,32,3,2,2,0.724,0.914947458000825,1
5,33,3,2,2,0.919,0.91436183299993,1
5,34,2,1,2,0.528,2.51854241699948,0
5,35,2,2,2,0.55,1.3507071669992,1
5,36,2,2,2,0.598,0.726169625000693,1
5,37,1,2,2,0.872,1.39053295799931,1
5,38,1,2,2,0.806,0.855961458999445,1
5,39,1,1,2,0.626,1.46426366700143,0
5,40,1,2,1,0.502,0.975800624999465,0
5,41,2,1,1,0.564,0.76626587499959,1
5,42,2,1,2,0.547,2.34408212500057,0
5,43,3,1,2,0.636,1.13456141700044,0
5,44,1,2,2,0.636,1.00218524999946,1
5,45,2,1,2,0.637,0.741861417000109,0
5,46,3,2,2,0.637,0.624982291999913,1
5,47,1,2,2,0.503,2.54469649999919,1
5,48,2,1,1,0.675,0.862710792000144,1
5,49,2,2,2,0.666,1.00528262499938,1
5,50,3,2,2,0.946,1.13315295899883,1
5,1,3,1,2,0.502,2.08655683399957,0
5,2,2,2,2,0.673,0.965858874998958,1
5,3,1,1,1,0.679,0.843079041998863,1
5,4,1,1,1,0.679,0.52061649999996,1
5,5,3,1,1,0.679,0.48970562499926,1
5,6,1,2,2,0.716,0.842126334000568,1
5,7,3,1,2,0.944,1.21109787500063,0
5,8,1,2,2,0.703,0.8211822079993,1
5,9,3,1,2,0.963,1.2394100829988,0
5,10,3,2,2,1.05,1.43384045800121,1
5,11,2,2,2,0.793,1.0455699590002,1
5,12,1,2,2,0.668,0.865190332999191,1
5,13,1,2,2,0.668,0.601907291998941,1
5,14,2,2,1,0.614,0.969958875000884,0
5,15,2,2,2,0.589,0.783136250000098,1
5,16,1,1,2,0.531,1.41049525000017,0
5,17,2,2,2,0.677,0.831226583000898,1
5,18,1,1,2,0.677,0.633885582999937,0
5,19,3,1,1,0.914,1.09117112499916,1
5,20,3,2,2,0.932,1.35946704200069,1
5,21,2,2,2,0.742,0.917245708000337,1
5,22,3,1,1,0.852,1.24179999999978,1
5,23,3,1,1,0.853,0.671540083001673,1
5,24,1,2,2,0.698,1.58503358400048,1
5,25,1,1,1,0.646,0.944832625000345,1
5,26,3,1,1,0.646,0.488478916000531,1
5,27,2,1,1,0.623,1.63294979199964,1
5,28,2,1,1,0.773,1.22292237500005,1
5,29,2,2,2,0.997,0.782047458000307,1
5,30,2,2,1,0.634,0.845193584000299,0
5,31,3,1,1,0.981,1.60146291599995,1
5,32,1,1,1,0.736,1.27398145799998,1
5,33,1,2,1,0.61,1.26098283300053,0
5,34,2,2,2,0.668,1.0189018330002,1
5,35,3,2,1,0.61,1.02646379199905,0
5,36,2,2,2,0.791,0.730446749999828,1
5,37,2,1,2,0.551,2.1744530420001,0
5,38,1,1,1,0.717,1.11340154199934,1
5,39,1,1,2,0.636,1.00206666599843,0
5,40,2,1,2,0.596,0.680160125000839,0
5,41,1,1,1,0.588,1.68053116699957,1
5,42,2,2,2,0.741,1.6814277500016,1
5,43,1,2,2,0.742,0.844686790998821,1
5,44,1,2,2,0.742,0.625100458999441,1
5,45,2,2,2,0.903,1.22382737500084,1
5,46,1,1,2,0.903,0.609205250000741,0
5,47,2,2,1,0.702,1.35136774999955,0
5,48,2,2,2,0.597,1.43511716699868,1
5,49,2,1,1,0.52,1.26519554200058,1
5,50,2,2,2,0.618,0.839120791999449,1
5,1,1,1,2,0.506,3.6569235829993,0
5,2,2,2,2,0.714,0.974186249999548,1
5,3,1,2,2,0.714,0.630822459001138,1
5,4,2,1,2,0.714,0.599995333001061,0
5,5,2,2,2,0.714,0.748218291999365,1
5,6,2,2,2,0.513,1.21972587500022,1
5,7,2,1,1,0.577,1.14551187500001,1
5,8,2,1,1,0.577,0.667939875000229,1
5,9,2,2,2,0.675,0.868054125001436,1
5,10,2,2,2,0.729,0.792391499999212,1
5,11,2,2,2,0.767,0.682923166999899,1
5,12,3,1,1,0.941,1.64073245899999,1
5,13,3,2,2,0.984,1.1374660829988,1
5,14,2,2,2,0.984,0.511421499999415,1
5,15,2,1,1,0.809,1.25860975000069,1
5,16,1,2,2,1.028,0.912063542000396,1
5,17,1,1,2,0.523,1.94462775000102,0
5,18,2,2,2,0.642,0.884113334001086,1
5,19,1,2,2,0.641,0.686857874999987,1
5,20,2,1,1,0.688,1.16937395899913,1
5,21,1,2,2,0.768,0.735008916999504,1
5,22,3,2,2,1.006,1.1298429999988,1
5,23,1,2,2,0.74,0.999671749999834,1
5,24,2,1,1,0.661,1.61582954199912,1
5,25,1,1,1,0.606,1.3973680830004,1
5,26,1,1,1,0.606,0.545523875000072,1
5,27,1,1,1,0.71,0.736173999999664,1
5,28,3,2,2,0.763,1.12041854100062,1
5,29,1,1,1,0.661,0.849876625001343,1
5,30,3,2,2,0.923,0.998482458000581,1
5,31,2,1,1,0.624,1.12831316699885,1
5,32,3,1,1,0.807,0.865387874999215,1
5,33,2,2,2,0.752,0.849140459000409,1
5,34,2,1,2,0.752,0.586137416999918,0
5,35,2,2,2,0.752,0.601907291000316,1
5,36,3,2,2,0.927,1.17034670799876,1
5,37,3,1,1,0.9,1.02304195800025,1
5,38,3,1,1,0.934,0.900358874998346,1
5,39,2,2,2,0.545,1.4886053750015,1
5,40,1,2,1,0.763,0.807905082998332,0
5,41,2,1,1,0.671,0.756679708001684,1
5,42,3,1,1,0.876,0.775230750001356,1
5,43,3,1,1,0.909,0.801029292000749,1
5,44,3,1,1,0.966,1.55081437499939,1
5,45,1,1,2,0.685,1.05668458299988,0
5,46,3,1,1,1,1.30126295800073,1
5,47,2,2,2,0.61,1.27959141700012,1
5,48,2,2,1,0.628,0.823236833000919,0
5,49,1,2,1,0.767,0.905263583001215,0
5,50,1,1,2,0.573,0.745131624998976,0
5,1,3,2,2,0.96,1.57886204199895,1
5,2,1,2,1,0.608,1.42524008299915,0
5,3,3,1,1,0.991,1.50217804199929,1
5,4,2,2,2,0.675,1.13511299999846,1
5,5,2,2,2,0.715,0.843025500000294,1
5,6,1,1,1,0.608,0.815908708000279,1
5,7,1,2,2,0.72,0.760182583000642,1
5,8,3,1,1,0.8,0.849589666999236,1
5,9,3,1,1,1,0.711453875001098,1
5,10,3,2,2,1.017,1.61783858300078,1
5,11,3,2,2,1.017,0.579776332999245,1
5,12,1,1,1,0.888,1.57930320800006,1
5,13,2,1,2,0.804,1.1673756250002,0
5,14,3,2,2,0.647,0.735536083000625,1
5,15,1,2,2,0.611,0.763928541999121,1
5,16,3,1,1,0.987,1.05003249999936,1
5,17,2,1,1,0.758,1.16804904200035,1
5,18,1,2,2,0.718,0.943189374998838,1
5,19,3,1,1,1,1.57172183399962,1
5,20,1,1,2,0.931,1.61512787499851,0
5,21,1,2,2,0.535,1.38612483299949,1
5,22,2,2,2,0.532,0.765584708000461,1
5,23,3,2,2,0.672,0.986711416000617,1
5,24,3,1,2,0.853,0.786218040999302,0
5,25,2,1,1,0.606,1.24929741699998,1
5,26,2,2,2,0.831,1.24858008400042,1
5,27,1,1,1,0.655,0.908769374998883,1
5,28,1,1,1,0.734,1.15294887500022,1
5,29,3,1,1,1,0.92184195900154,1
5,30,2,2,2,0.577,1.28951137500007,1
5,31,1,2,1,0.605,0.64123812499929,0
5,32,1,1,2,0.596,0.713062875000105,0
5,33,2,2,2,0.596,0.570265124999423,1
5,34,1,1,2,0.509,0.725799499999994,0
5,35,1,1,1,0.628,0.712626833999821,1
5,36,2,1,1,0.767,1.01380712500031,1
5,37,2,2,2,0.709,0.91811083399989,1
5,38,2,1,1,0.557,0.753918624999642,1
5,39,3,2,2,0.962,0.8986169589989,1
5,40,2,1,1,0.932,0.985632082998563,1
5,41,1,2,2,0.515,1.60869970800013,1
5,42,3,2,2,1.028,1.69294679199993,1
5,43,2,1,1,0.751,1.14238895900053,1
5,44,1,2,2,0.713,1.71971362499971,1
5,45,3,1,1,0.805,1.85153095799978,1
5,46,1,1,2,0.739,0.886642958999801,0
5,47,1,2,2,0.586,2.28274600000077,1
5,48,3,2,2,0.98,1.28012191600101,1
5,49,3,1,2,0.749,1.670306334001,0
5,50,2,2,2,0.644,0.830151208001553,1
5,1,2,1,1,0.626,1.47894154200003,1
5,2,1,1,2,0.629,0.845986541999082,0
5,3,3,2,2,0.913,0.816900540999995,1
5,4,2,2,2,0.913,0.594698124999923,1
5,5,2,2,2,0.913,0.538604583000051,1
5,6,2,2,2,0.723,1.45024308400025,1
5,7,2,2,2,0.723,0.589386790999924,1
