Subj_idx,trial,condition,stimulus,response,confidence,rt,correct
1,1,0.045,2,2,0.618,1.81732383405324,1
1,2,0.045,1,2,0.696,1.33390962495469,0
1,3,0.045,1,1,0.612,1.39920212491415,1
1,4,0.045,2,2,0.618,1.10442041698843,1
1,5,0.045,2,2,0.728,1.86647408397403,1
1,6,0.045,2,2,0.817,1.10998112498783,1
1,7,0.045,1,1,0.693,1.21111770800781,1
1,8,0.045,1,2,0.72,1.01330229197629,0
1,9,0.045,1,2,0.64,0.825565292034298,0
1,10,0.045,1,1,0.602,0.913550334051251,1
1,11,0.045,2,1,0.52,2.05679737497121,0
1,12,0.045,1,2,0.688,0.856321166967973,0
1,13,0.045,1,2,0.536,2.7683800420491,0
1,14,0.045,2,1,0.579,1.77627345791552,0
1,15,0.045,1,1,0.547,1.87289866595529,1
1,16,0.045,1,2,0.627,2.2568678339012,0
1,17,0.045,1,2,0.661,1.21449795807712,0
1,18,0.045,1,1,0.539,1.91111633402761,1
1,19,0.045,2,1,0.517,4.50348783307709,0
1,20,0.045,1,2,0.642,1.80687304202002,0
1,21,0.045,2,2,0.558,2.33692879194859,1
1,22,0.045,2,1,0.553,2.4948871670058,0
1,23,0.045,1,1,0.57,1.34242862509564,1
1,24,0.045,1,1,0.57,1.52111954195425,1
1,25,0.045,1,1,0.633,1.59405016701203,1
1,26,0.045,1,2,0.684,2.79242862504907,0
1,27,0.045,1,1,0.633,2.21863741695415,1
1,28,0.045,2,2,0.775,1.52719458297361,1
1,29,0.045,2,2,0.743,1.25757216603961,1
1,30,0.045,1,1,0.501,2.643358041998,1
1,1,0.045,1,2,0.607,1.53806841699407,0
1,2,0.045,2,2,0.599,1.59967629204039,1
1,3,0.045,1,1,0.575,1.47031024994794,1
1,4,0.045,2,1,0.698,3.957865125034,0
1,5,0.045,2,1,0.63,1.38610391609836,0
1,6,0.045,2,1,0.63,0.987722082994878,0
1,7,0.045,1,1,0.502,2.96064566704445,1
1,8,0.045,1,1,0.501,3.90083333291113,1
1,9,0.045,2,1,0.538,1.61389533302281,0
1,10,0.045,2,2,0.546,1.57527220901102,1
1,11,0.045,2,2,0.546,1.1064552909229,1
1,12,0.045,1,1,0.582,1.06860229198355,1
1,13,0.045,2,2,0.581,0.95384141698014,1
1,14,0.045,2,2,0.565,1.26066570798866,1
1,15,0.045,1,2,0.565,0.994838749989867,0
1,16,0.045,2,2,0.565,1.5418722499162,1
1,17,0.045,1,1,0.751,2.66610820800997,1
1,18,0.045,1,1,0.587,2.42825991706923,1
1,19,0.045,2,2,0.615,1.09390033408999,1
1,20,0.045,2,1,0.612,1.76876833301503,0
1,21,0.045,1,2,0.745,1.97935991699342,0
1,22,0.045,1,1,0.512,2.51496633293573,1
1,23,0.045,2,1,0.506,2.043666249956,0
1,24,0.045,1,2,0.516,2.29175991704687,0
1,25,0.045,1,2,0.516,1.47000216704328,0
1,26,0.045,2,2,0.666,0.991121208062395,1
1,27,0.045,1,2,0.684,0.972813250031322,0
1,28,0.045,2,2,0.679,0.75574854190927,1
1,29,0.045,1,2,0.789,1.42870325001422,0
1,30,0.045,2,2,0.75,1.11123970791232,1
1,1,0.045,1,1,0.64,1.30886825011112,1
1,2,0.045,1,1,0.578,1.09700058295857,1
1,3,0.045,1,2,0.629,0.820106000057422,0
1,4,0.045,1,2,0.575,1.96978904190473,0
1,5,0.045,1,1,0.589,1.95229895901866,1
1,6,0.045,1,1,0.775,1.49308725004084,1
1,7,0.045,1,2,0.752,1.5536161250202,0
1,8,0.045,2,1,0.643,1.54408087499905,0
1,9,0.045,2,1,0.592,1.26634941704106,0
1,10,0.045,1,1,0.688,1.32315900002141,1
1,11,0.045,2,1,0.688,0.79632916697301,0
1,12,0.045,1,1,0.746,1.58515083300881,1
1,13,0.045,2,1,0.71,1.06524120899849,0
1,14,0.045,2,2,0.672,1.37813283293508,1
1,15,0.045,2,2,0.659,0.795834208955057,1
1,16,0.045,1,2,0.757,1.45851833303459,0
1,17,0.045,1,2,0.604,0.835540583007969,0
1,18,0.045,1,2,0.617,1.12341591704171,0
1,19,0.045,1,1,0.644,0.898077417048626,1
1,20,0.045,2,2,0.807,0.978167542023584,1
1,21,0.045,1,2,0.669,0.817719958024099,0
1,22,0.045,1,2,0.783,1.03621200006455,0
1,23,0.045,2,1,0.511,1.67481587501243,0
1,24,0.045,1,2,0.655,1.13391833310015,0
1,25,0.045,1,2,0.826,0.995112749980763,0
1,26,0.045,2,2,0.501,3.32355029101018,1
1,27,0.045,2,1,0.576,5.16591058392078,0
1,28,0.045,2,1,0.616,1.29655954195186,0
1,29,0.045,2,2,0.647,1.1511845830828,1
1,30,0.045,2,2,0.809,0.914588375017047,1
1,1,0.045,2,1,0.622,1.54970862495247,0
1,2,0.045,2,1,0.681,1.36119187506847,0
1,3,0.045,1,1,0.609,1.04721804102883,1
1,4,0.045,1,2,0.715,1.61774183309171,0
1,5,0.045,2,1,0.524,2.21600541600492,0
1,6,0.045,2,1,0.522,1.27888470795006,0
1,7,0.045,2,2,0.595,1.74773170903791,1
1,8,0.045,2,2,0.646,2.99913545802701,1
1,9,0.045,1,1,0.574,1.41525908408221,1
1,10,0.045,1,2,0.602,1.13353079208173,0
1,11,0.045,1,2,0.598,1.36803749995306,0
1,12,0.045,1,1,0.587,1.65646720898803,1
1,13,0.045,2,2,0.637,0.929040999966674,1
1,14,0.045,2,2,0.682,0.980425167013891,1
1,15,0.045,2,2,0.516,2.83089462504722,1
1,16,0.045,1,1,0.721,1.28960341704078,1
1,17,0.045,2,2,0.625,0.87231900007464,1
1,18,0.045,1,1,0.582,2.69656754098833,1
1,19,0.045,2,2,0.654,1.08304779196624,1
1,20,0.045,2,2,0.583,1.75499825004954,1
1,21,0.045,1,1,0.598,0.744584584026597,1
1,22,0.045,2,2,0.598,2.40481912496034,1
1,23,0.045,1,1,0.777,0.958805916947313,1
1,24,0.045,2,2,0.792,0.915426749968901,1
1,25,0.045,1,1,0.743,2.00205512496177,1
1,26,0.045,1,1,0.848,1.62698479206301,1
1,27,0.045,2,1,0.519,3.28973220800981,0
1,28,0.045,1,2,0.874,1.27257129107602,0
1,29,0.045,1,2,0.7,1.1713284580037,0
1,30,0.045,2,1,0.508,2.67498316604178,0
1,1,0.06,2,2,0.589,1.50308483396657,1
1,2,0.06,2,2,0.675,0.840170167037286,1
1,3,0.06,1,2,0.675,0.867348207975738,0
1,4,0.06,2,1,0.612,1.14384575001895,0
1,5,0.06,2,2,0.63,1.01642449991778,1
1,6,0.06,1,2,0.74,0.899702582973987,0
1,7,0.06,2,1,0.543,1.63393099990208,0
1,8,0.06,1,2,0.538,1.41929700004403,0
1,9,0.06,1,1,0.558,1.20036237500608,1
1,10,0.06,1,1,0.748,2.21304208401125,1
1,11,0.06,2,2,0.661,0.789880500058644,1
1,12,0.06,1,2,0.68,1.22849741601385,0
1,13,0.06,1,1,0.523,2.79981424997095,1
1,14,0.06,1,1,0.639,1.03331195795909,1
1,15,0.06,2,2,0.727,1.47651125001721,1
1,16,0.06,1,2,0.714,0.728866624995135,0
1,17,0.06,1,1,0.547,1.17209458397701,1
1,18,0.06,1,2,0.56,1.03665666596498,0
1,19,0.06,2,2,0.719,1.13422379095573,1
1,20,0.06,2,1,0.546,1.11291350005195,0
1,21,0.06,1,2,0.719,1.3239120420767,0
1,22,0.06,1,1,0.702,1.1601671660319,1
1,23,0.06,1,1,0.543,2.01339025003836,1
1,24,0.06,2,2,0.568,1.10182745789643,1
1,25,0.06,2,2,0.505,2.61878829100169,1
1,26,0.06,1,1,0.796,1.49135641602334,1
1,27,0.06,1,1,0.846,1.33272537507582,1
1,28,0.06,1,2,0.616,1.04745041695423,0
1,29,0.06,1,1,0.553,2.07318787497934,1
1,30,0.06,1,1,0.553,1.9128931669984,1
1,1,0.06,1,2,0.652,1.38970320799854,0
1,2,0.06,1,1,0.671,0.889976707985625,1
1,3,0.06,2,1,0.508,2.06839241599664,0
1,4,0.06,2,2,0.554,1.01061366696376,1
1,5,0.06,2,1,0.609,1.22762416594196,0
1,6,0.06,2,1,0.653,1.11681670800317,0
1,7,0.06,1,2,0.646,1.28802991600242,0
1,8,0.06,2,2,0.553,1.45226770802401,1
1,9,0.06,2,1,0.556,2.31825062492862,0
1,10,0.06,1,1,0.556,0.834381874999963,1
1,11,0.06,1,1,0.588,0.942761834012344,1
1,12,0.06,2,2,0.66,0.936741832992993,1
1,13,0.06,1,1,0.648,0.850318916956894,1
1,14,0.06,2,1,0.51,1.78648670902476,0
1,15,0.06,2,2,0.71,1.91188708401751,1
1,16,0.06,1,1,0.592,2.16559425008018,1
1,17,0.06,2,1,0.665,1.14352929103188,0
1,18,0.06,1,2,0.53,2.90301566699054,0
1,19,0.06,2,1,0.658,2.99094416690059,0
1,20,0.06,1,1,0.588,1.89538383297622,1
1,21,0.06,2,2,0.697,0.873423916986212,1
1,22,0.06,1,1,0.547,2.99000962497666,1
1,23,0.06,2,2,0.684,1.76023295905907,1
1,24,0.06,2,2,0.785,0.9368404999841,1
1,25,0.06,1,2,0.785,0.595270959078334,0
1,26,0.06,1,2,0.703,1.17467454192229,0
1,27,0.06,1,1,0.569,0.986077125067823,1
1,28,0.06,1,2,0.617,0.852850000024773,0
1,29,0.06,1,1,0.506,2.14965362497605,1
1,30,0.06,2,1,0.544,1.56765879201703,0
1,1,0.06,1,2,0.668,1.09377174999099,0
1,2,0.06,2,2,0.617,0.974199916934595,1
1,3,0.06,2,1,0.595,1.27309162495658,0
1,4,0.06,1,1,0.634,1.03426329197828,1
1,5,0.06,2,1,0.516,2.6434710000176,0
1,6,0.06,2,2,0.556,1.32103229104541,1
1,7,0.06,1,2,0.69,1.07575204200111,0
1,8,0.06,2,1,0.523,1.39706683391705,0
1,9,0.06,1,1,0.605,2.89304029103369,1
1,10,0.06,1,2,0.618,1.09618279198185,0
1,11,0.06,1,1,0.672,0.839724124991335,1
1,12,0.06,1,1,0.672,0.629107165965252,1
1,13,0.06,1,2,0.773,0.943952833069488,0
1,14,0.06,1,1,0.701,0.964684291975573,1
1,15,0.06,1,2,0.63,1.04658500000369,0
1,16,0.06,2,1,0.704,1.07190433400683,0
1,17,0.06,1,1,0.648,1.25902891601436,1
1,18,0.06,2,1,0.648,0.828530582948588,0
1,19,0.06,1,1,0.739,0.924238958046772,1
1,20,0.06,2,2,0.753,0.969850167050026,1
1,21,0.06,1,1,0.61,0.876892082975246,1
1,22,0.06,1,2,0.684,0.85220854205545,0
1,23,0.06,1,2,0.759,1.22924637491815,0
1,24,0.06,2,1,0.619,1.4868432499934,0
1,25,0.06,1,2,0.575,2.04812979104463,0
1,26,0.06,2,2,0.606,1.43010279093869,1
1,27,0.06,2,2,0.591,1.0250191250816,1
1,28,0.06,2,2,0.555,0.842930749990046,1
1,29,0.06,1,2,0.624,1.53034099994693,0
1,30,0.06,1,1,0.527,2.57783316599671,1
1,1,0.06,1,2,0.595,2.97002016694751,0
1,2,0.06,1,1,0.625,1.25825745810289,1
1,3,0.06,1,1,0.66,1.65141166595276,1
1,4,0.06,2,2,0.705,1.08711379196029,1
1,5,0.06,2,1,0.621,0.928939540986903,0
1,6,0.06,1,2,0.61,1.95821424992755,0
1,7,0.06,1,2,0.685,1.30606049997732,0
1,8,0.06,2,2,0.598,0.995654332917184,1
1,9,0.06,1,1,0.613,0.922728291014209,1
1,10,0.06,1,2,0.608,1.08326958294492,0
1,11,0.06,1,2,0.623,1.02378062508069,0
1,12,0.06,2,2,0.703,1.07623133296147,1
1,13,0.06,2,2,0.667,0.8913205829449,1
1,14,0.06,2,2,0.737,0.940218125004321,1
1,15,0.06,2,2,0.747,0.874506665975787,1
1,16,0.06,2,2,0.747,0.836509499931708,1
1,17,0.06,1,2,0.795,0.767916375072673,0
1,18,0.06,1,2,0.523,1.82330799999181,0
1,19,0.06,1,1,0.561,1.89553741691634,1
1,20,0.06,2,2,0.688,1.28270954196341,1
1,21,0.06,1,2,0.757,1.02872987498995,0
1,22,0.06,1,1,0.578,1.5124602089636,1
1,23,0.06,1,2,0.646,0.868194708018564,0
1,24,0.06,2,2,0.749,1.05944283399731,1
1,25,0.06,2,2,0.744,0.781714166980237,1
1,26,0.06,2,2,0.834,1.11327170801815,1
1,27,0.06,1,2,0.841,1.6100294169737,0
1,28,0.06,2,1,0.672,2.72455358307343,0
1,29,0.06,2,1,0.669,2.0170743749477,0
1,30,0.06,2,2,0.72,1.14867733290885,1
1,1,0.08,1,2,0.583,2.05414679204114,0
1,2,0.08,1,1,0.624,1.97683112497907,1
1,3,0.08,1,2,0.665,1.94525495904963,0
1,4,0.08,2,2,0.802,1.28133037500083,1
1,5,0.08,1,1,0.687,0.961454875068739,1
1,6,0.08,1,2,0.752,1.31551616603974,0
1,7,0.08,1,1,0.686,1.23146629100665,1
1,8,0.08,2,2,0.617,1.93330949998926,1
1,9,0.08,2,2,0.742,0.88386604108382,1
1,10,0.08,1,1,0.777,1.09650529106148,1
1,11,0.08,2,2,0.692,1.04412020801101,1
1,12,0.08,2,2,0.692,0.859107375028543,1
1,13,0.08,2,2,0.777,0.796799957985058,1
1,14,0.08,1,1,0.618,0.843387917033397,1
1,15,0.08,1,2,0.796,0.791520999977365,0
1,16,0.08,2,1,0.531,0.985683040926233,0
1,17,0.08,1,2,0.706,1.05185233301017,0
1,18,0.08,1,2,0.531,4.15806191693991,0
1,19,0.08,2,1,0.544,2.99806787504349,0
1,20,0.08,2,1,0.713,1.31390183302574,0
1,21,0.08,1,2,0.575,2.43287799996324,0
1,22,0.08,2,2,0.583,0.841827459051274,1
1,23,0.08,1,2,0.662,0.861000749981031,0
1,24,0.08,1,1,0.649,1.26017200003844,1
1,25,0.08,1,1,0.691,0.896532458020374,1
1,26,0.08,1,1,0.691,0.764213499962352,1
1,27,0.08,1,1,0.692,0.588007334037684,1
1,28,0.08,2,2,0.717,1.1405657910509,1
1,29,0.08,2,1,0.619,0.769794624997303,0
1,30,0.08,1,2,0.633,0.95836725004483,0
1,1,0.08,2,1,0.53,2.60731633403338,0
1,2,0.08,2,1,0.537,1.25526600005105,0
1,3,0.08,1,1,0.537,0.789234167081304,1
1,4,0.08,1,1,0.581,0.751475875033066,1
1,5,0.08,2,1,0.545,1.48292708396912,0
1,6,0.08,1,2,0.557,1.01804170897231,0
1,7,0.08,1,1,0.583,0.922922125086188,1
1,8,0.08,1,1,0.676,1.25551462499425,1
1,9,0.08,2,1,0.521,2.48573950002901,0
1,10,0.08,2,2,0.552,0.975529541028664,1
1,11,0.08,1,2,0.672,0.786962250014767,0
1,12,0.08,1,2,0.566,1.1066443749005,0
1,13,0.08,1,1,0.583,0.908959041931666,1
1,14,0.08,2,1,0.613,0.749456041958183,0
1,15,0.08,2,2,0.631,1.04788062500302,1
1,16,0.08,1,1,0.582,0.940532500040717,1
1,17,0.08,2,2,0.684,0.885252041975036,1
1,18,0.08,2,1,0.637,0.765173207968473,0
1,19,0.08,2,2,0.559,1.9973784169415,1
1,20,0.08,2,1,0.571,1.20116087503266,0
1,21,0.08,1,1,0.626,1.07869483402465,1
1,22,0.08,1,2,0.512,1.95059237501118,0
1,23,0.08,1,1,0.62,0.874228999949992,1
1,24,0.08,2,1,0.657,1.56909391703084,0
1,25,0.08,2,2,0.615,0.915207708021626,1
1,26,0.08,1,1,0.597,1.09109983302187,1
1,27,0.08,2,2,0.685,0.865756332990713,1
1,28,0.08,1,1,0.537,1.08245766698383,1
1,29,0.08,2,2,0.715,0.977537875063717,1
1,30,0.08,1,1,0.703,0.70758766704239,1
1,1,0.08,2,2,0.767,1.12514108303003,1
1,2,0.08,2,2,0.744,0.691105125006288,1
1,3,0.08,1,1,0.617,1.32323337497655,1
1,4,0.08,2,2,0.713,0.673896915977821,1
1,5,0.08,1,1,0.665,0.832645209040493,1
1,6,0.08,2,2,0.923,0.578284332994372,1
1,7,0.08,2,1,0.745,1.90544720797334,0
1,8,0.08,1,1,0.627,1.49856591701973,1
1,9,0.08,2,1,0.52,1.97795866592787,0
1,10,0.08,2,2,0.704,1.12748708401341,1
1,11,0.08,1,1,0.683,0.965745999943465,1
1,12,0.08,2,2,0.65,0.879537708009593,1
1,13,0.08,1,2,0.766,1.06850249995477,0
1,14,0.08,2,2,0.574,0.763296750024892,1
1,15,0.08,1,1,0.613,0.905644458951429,1
1,16,0.08,1,1,0.758,0.851114374934696,1
1,17,0.08,2,2,0.654,0.964538750005886,1
1,18,0.08,2,2,0.721,0.813256000052206,1
1,19,0.08,2,2,0.673,0.768909334088676,1
1,20,0.08,2,2,0.748,0.835560917039402,1
1,21,0.08,2,2,0.748,0.791950958082452,1
1,22,0.08,1,2,0.76,0.866096624988131,0
1,23,0.08,2,2,0.675,0.778813125099987,1
1,24,0.08,1,2,0.689,1.15567679097876,0
1,25,0.08,2,2,0.689,0.6916084169643,1
1,26,0.08,2,2,0.689,0.730511749978177,1
1,27,0.08,1,1,0.512,2.11069895804394,1
1,28,0.08,1,1,0.636,1.29674095800146,1
1,29,0.08,2,2,0.7,1.04125583299901,1
1,30,0.08,1,1,0.646,0.721569916931912,1
1,1,0.08,1,1,0.5,4.41453616705257,1
1,2,0.08,2,2,0.617,1.11246554099489,1
1,3,0.08,1,1,0.611,0.949435125105083,1
1,4,0.08,2,2,0.75,0.888117250055075,1
1,5,0.08,1,1,0.817,0.816114666988142,1
1,6,0.08,2,1,0.817,0.844620792078786,0
1,7,0.08,1,1,0.749,1.16421554097906,1
1,8,0.08,2,2,0.705,0.810353333014064,1
1,9,0.08,1,1,0.579,2.67488345794845,1
1,10,0.08,2,2,0.796,0.785554082947783,1
1,11,0.08,1,1,0.83,0.754434749949723,1
1,12,0.08,2,2,0.578,1.14731145801488,1
1,13,0.08,2,1,0.707,1.3459684579866,0
1,14,0.08,1,1,0.513,2.474829667015,1
1,15,0.08,2,2,0.678,0.819448541966267,1
1,16,0.08,2,2,0.714,0.819333916995674,1
1,17,0.08,2,2,0.695,0.909736374975182,1
1,18,0.08,2,2,0.727,0.803327417001128,1
1,19,0.08,2,2,0.734,1.09957766695879,1
1,20,0.08,2,2,0.792,0.87223791598808,1
1,21,0.08,2,2,0.824,0.758690832997672,1
1,22,0.08,1,2,0.779,0.838206000044011,0
1,23,0.08,2,1,0.575,1.18660454207566,0
1,24,0.08,1,2,0.736,0.903313416987658,0
1,25,0.08,1,2,0.736,0.778530833078548,0
1,26,0.08,1,1,0.606,1.55109870806336,1
1,27,0.08,1,2,0.62,1.06135804194491,0
1,28,0.08,1,1,0.675,0.749541458906606,1
1,29,0.08,1,1,0.771,0.720405624946579,1
1,30,0.08,2,2,0.622,0.963942415895872,1
1,1,0.045,1,1,0.67,1.06582183297724,1
1,2,0.045,2,2,0.7,0.910885917022824,1
1,3,0.045,2,1,0.632,0.990318083087914,0
1,4,0.045,1,2,0.761,0.8522464169655,0
1,5,0.045,2,1,0.744,1.2262067910051,0
1,6,0.045,2,2,0.759,1.01184295897838,1
1,7,0.045,2,1,0.712,0.949994082911871,0
1,8,0.045,2,1,0.567,2.91682154103182,0
1,9,0.045,1,1,0.721,1.03195700002834,1
1,10,0.045,1,2,0.662,1.23142862506211,0
1,11,0.045,1,2,0.654,1.10522958298679,0
1,12,0.045,2,1,0.65,1.65259033290204,0
1,13,0.045,2,2,0.606,1.19058491697069,1
1,14,0.045,1,1,0.534,0.866150249959901,1
1,15,0.045,2,1,0.548,1.98135916702449,0
1,16,0.045,2,2,0.682,1.38507829094306,1
1,17,0.045,2,1,0.726,0.904628833988681,0
1,18,0.045,2,1,0.648,1.25648612494115,0
1,19,0.045,2,2,0.542,0.890986582962796,1
1,20,0.045,2,2,0.644,0.921999291982502,1
1,21,0.045,1,1,0.575,0.836276874993928,1
1,22,0.045,2,2,0.701,1.34490708308294,1
1,23,0.045,2,2,0.705,0.885981624945998,1
1,24,0.045,1,2,0.719,0.732799999997951,0
1,25,0.045,2,2,0.706,1.18636699998751,1
1,26,0.045,1,1,0.778,1.64334283396602,1
1,27,0.045,2,2,0.82,1.38186750002205,1
1,28,0.045,1,1,0.742,1.08765875000972,1
1,29,0.045,1,1,0.734,1.09241066593677,1
1,30,0.045,2,1,0.735,0.945630250032991,0
1,1,0.045,1,1,0.505,2.47032520791981,1
1,2,0.045,1,1,0.6,1.1635891670594,1
1,3,0.045,1,1,0.701,0.746676375041716,1
1,4,0.045,1,2,0.757,0.834773541078903,0
1,5,0.045,2,2,0.56,1.58715333300643,1
1,6,0.045,1,2,0.672,0.977202750043944,0
1,7,0.045,2,2,0.666,0.611593708978035,1
1,8,0.045,1,2,0.805,0.772736125043593,0
1,9,0.045,1,1,0.715,1.30844195804093,1
1,10,0.045,1,2,0.699,1.93614933395293,0
1,11,0.045,2,2,0.727,0.911078374949284,1
1,12,0.045,1,2,0.517,2.59877275000326,0
1,13,0.045,1,1,0.758,1.07034616696183,1
1,14,0.045,2,1,0.527,1.40816741599701,0
1,15,0.045,1,2,0.64,1.70122008398175,0
1,16,0.045,2,2,0.64,2.54436737496872,1
1,17,0.045,1,2,0.681,2.24086904199794,0
1,18,0.045,1,2,0.677,0.955012083053589,0
1,19,0.045,2,1,0.652,0.8611334169982,0
1,20,0.045,2,2,0.623,0.916189791983925,1
1,21,0.045,1,2,0.681,0.910698791965842,0
1,22,0.045,2,2,0.68,0.787597291986458,1
1,23,0.045,2,2,0.704,1.08441262505949,1
1,24,0.045,1,2,0.738,1.13068512501195,0
1,25,0.045,1,1,0.662,1.26832787506282,1
1,26,0.045,2,1,0.713,0.817214916925877,0
1,27,0.045,2,1,0.716,1.01923295797314,0
1,28,0.045,1,1,0.589,1.09300229209475,1
1,29,0.045,1,1,0.507,2.94904058298562,1
1,30,0.045,2,2,0.676,0.77631995792035,1
1,1,0.045,1,2,0.509,2.02200908295345,0
1,2,0.045,1,1,0.539,0.857373041915707,1
1,3,0.045,1,1,0.541,3.26755966700148,1
1,4,0.045,2,2,0.53,0.823967000003904,1
1,5,0.045,2,1,0.501,1.84162537497468,0
1,6,0.045,1,2,0.524,1.37018766603433,0
1,7,0.045,1,2,0.524,3.13703270803671,0
1,8,0.045,2,1,0.649,1.50278745801188,0
1,9,0.045,2,1,0.649,1.45830608299002,0
1,10,0.045,2,1,0.649,2.18898624996655,0
1,11,0.045,1,1,0.528,2.30045520793647,1
1,12,0.045,2,1,0.538,1.74538537499029,0
1,13,0.045,1,1,0.648,1.21875754196662,1
1,14,0.045,2,1,0.632,3.11300254194066,0
1,15,0.045,2,2,0.519,2.46708608302288,1
1,16,0.045,1,2,0.538,1.17563879105728,0
1,17,0.045,1,1,0.57,1.29856054205447,1
1,18,0.045,2,1,0.578,2.07055387506261,0
1,19,0.045,2,2,0.662,0.939297624980099,1
1,20,0.045,1,1,0.585,0.891944625065662,1
1,21,0.045,2,1,0.628,1.47894816601183,0
1,22,0.045,1,2,0.679,1.02619962499011,0
1,23,0.045,1,2,0.646,1.07592379197013,0
1,24,0.045,1,2,0.654,1.097367499955,0
1,25,0.045,1,2,0.654,0.79542745789513,0
1,26,0.045,1,2,0.654,0.768679833039641,0
1,27,0.045,2,1,0.744,1.03110683301929,0
1,28,0.045,2,2,0.6,2.00999862491153,1
1,29,0.045,1,1,0.672,0.872456124983728,1
1,30,0.045,2,2,0.622,0.965009209001437,1
1,1,0.045,2,2,0.728,1.0118414160097,1
1,2,0.045,1,1,0.684,1.67545429198071,1
1,3,0.045,1,1,0.679,0.73556154104881,1
1,4,0.045,1,1,0.668,1.36318466602825,1
1,5,0.045,1,1,0.709,0.706265458022244,1
1,6,0.045,2,1,0.767,0.668693332932889,0
1,7,0.045,1,1,0.555,0.545032249996439,1
1,8,0.045,1,1,0.594,0.578917125007138,1
1,9,0.045,1,1,0.6,0.513781249988824,1
1,10,0.045,1,2,0.753,0.739899583044462,0
1,11,0.045,1,1,0.725,0.68337954103481,1
1,12,0.045,2,1,0.654,0.961842749966308,0
1,13,0.045,1,2,0.624,0.963451249990612,0
1,14,0.045,2,2,0.501,3.00500662508421,1
1,15,0.045,1,1,0.704,0.878979332977906,1
1,16,0.045,1,2,0.729,0.765240250038914,0
1,17,0.045,1,2,0.589,1.10566295799799,0
1,18,0.045,1,2,0.677,1.03565949993208,0
1,19,0.045,2,1,0.516,2.63647420902271,0
1,20,0.045,2,2,0.528,0.879052708041854,1
1,21,0.045,2,2,0.7,0.913437750074081,1
1,22,0.045,1,1,0.619,1.35561404202599,1
1,23,0.045,1,2,0.667,0.767241582972929,0
1,24,0.045,1,1,0.607,0.78657591692172,1
1,25,0.045,1,1,0.595,1.4602910419926,1
1,26,0.045,1,2,0.655,1.17824279190972,0
1,27,0.045,1,1,0.642,1.16266320797149,1
1,28,0.045,1,2,0.661,1.93985099997371,0
1,29,0.045,1,2,0.675,0.85725054203067,0
1,30,0.045,1,2,0.727,1.68095241696574,0
1,1,0.08,2,1,0.532,3.07751545798965,0
1,2,0.08,1,2,0.579,0.81436916696839,0
1,3,0.08,1,2,0.617,1.20469491695985,0
1,4,0.08,2,2,0.521,1.9014571250882,1
1,5,0.08,1,1,0.599,3.68678300001193,1
1,6,0.08,2,2,0.634,1.66999187495094,1
1,7,0.08,1,1,0.655,0.863259417004883,1
1,8,0.08,1,1,0.65,1.22071799996775,1
1,9,0.08,2,2,0.664,0.968758124974556,1
1,10,0.08,2,1,0.564,3.08198308292776,0
1,11,0.08,2,2,0.582,0.933058249996975,1
1,12,0.08,1,2,0.83,1.53378608298954,0
1,13,0.08,1,1,0.652,1.37840266595595,1
1,14,0.08,2,2,0.694,1.14467300008982,1
1,15,0.08,2,2,0.79,0.806240124977194,1
1,16,0.08,1,1,0.654,1.47651154198684,1
1,17,0.08,2,2,0.731,0.908513000002131,1
1,18,0.08,2,2,0.81,0.824368375004269,1
1,19,0.08,2,2,0.801,0.586289792088792,1
1,20,0.08,1,1,0.711,1.23470770800486,1
1,21,0.08,1,2,0.667,0.809530791942962,0
1,22,0.08,1,1,0.722,0.666825292049907,1
1,23,0.08,1,2,0.735,0.876772833056748,0
1,24,0.08,1,1,0.65,0.616242916905321,1
1,25,0.08,1,1,0.724,0.620014125015587,1
1,26,0.08,2,2,0.719,0.889634249964729,1
1,27,0.08,1,1,0.675,1.43219295900781,1
1,28,0.08,2,2,0.846,0.857995957951061,1
1,29,0.08,2,2,0.853,0.968342124950141,1
1,30,0.08,2,2,0.853,0.674429083010182,1
1,1,0.08,1,1,0.624,1.21522783290129,1
1,2,0.08,1,1,0.87,0.635075959027745,1
1,3,0.08,2,2,0.682,0.827876208000816,1
1,4,0.08,2,1,0.764,0.923081082990393,0
1,5,0.08,1,1,0.635,0.828499750001356,1
1,6,0.08,1,1,0.796,0.778910459019244,1
1,7,0.08,2,2,0.767,0.895800375030376,1
1,8,0.08,1,1,0.631,0.680668458924629,1
1,9,0.08,1,1,0.784,0.688770750071853,1
1,10,0.08,1,1,0.74,0.635570666054264,1
1,11,0.08,1,1,0.74,0.565332249971107,1
1,12,0.08,1,1,0.74,0.55497487494722,1
1,13,0.08,1,1,0.847,0.699234417057596,1
1,14,0.08,2,2,0.794,0.960656291921623,1
1,15,0.08,2,2,0.791,0.70719562494196,1
1,16,0.08,2,2,0.824,0.737841249909252,1
1,17,0.08,1,1,0.759,0.732378667104058,1
1,18,0.08,1,2,0.747,0.819799457909539,0
1,19,0.08,1,2,0.679,0.899192874901928,0
1,20,0.08,1,1,0.532,2.15483058406971,1
1,21,0.08,1,1,0.825,0.906123457942158,1
1,22,0.08,1,1,0.824,0.555869709001854,1
1,23,0.08,1,1,0.811,0.614545333897695,1
1,24,0.08,1,1,0.806,0.56510916701518,1
1,25,0.08,1,1,0.807,0.873139082919806,1
1,26,0.08,2,1,0.807,0.786824165959843,0
1,27,0.08,1,1,0.614,0.933049124898389,1
1,28,0.08,2,2,0.652,1.23746841703542,1
1,29,0.08,2,2,0.76,0.584469374967739,1
1,30,0.08,1,1,0.745,0.986051834071986,1
1,1,0.08,2,2,0.617,1.32630516705103,1
1,2,0.08,2,1,0.685,0.857020957977511,0
1,3,0.08,1,1,0.585,1.13989987492096,1
1,4,0.08,1,1,0.8,0.945156542002223,1
1,5,0.08,1,2,0.615,1.56121641700156,0
1,6,0.08,2,2,0.584,1.42765116703231,1
1,7,0.08,1,1,0.751,1.16766116698273,1
1,8,0.08,2,2,0.878,1.10072674998082,1
1,9,0.08,1,1,0.679,1.12121508398559,1
1,10,0.08,2,2,0.77,0.691287707886659,1
1,11,0.08,2,1,0.749,2.21266275004018,0
1,12,0.08,1,1,0.541,2.26266829192173,1
1,13,0.08,1,1,0.647,1.25897420803085,1
1,14,0.08,2,2,0.77,0.808642041054554,1
1,15,0.08,2,2,0.685,1.15596316708252,1
1,16,0.08,2,1,0.609,1.04920737491921,0
1,17,0.08,2,1,0.531,1.16513554193079,0
1,18,0.08,2,1,0.525,2.02054000005592,0
1,19,0.08,2,2,0.663,1.26797191600781,1
1,20,0.08,1,1,0.752,0.807550083030947,1
1,21,0.08,2,2,0.662,0.864364707958885,1
1,22,0.08,2,1,0.659,1.42331016692333,0
1,23,0.08,2,2,0.604,1.23153045808431,1
1,24,0.08,2,2,0.712,0.766718041035347,1
1,25,0.08,1,1,0.705,1.42052450007759,1
1,26,0.08,1,2,0.703,0.890173542080447,0
1,27,0.08,1,1,0.635,1.82726087491028,1
1,28,0.08,1,1,0.51,2.80674241704401,1
1,29,0.08,2,2,0.621,1.21949733304791,1
1,30,0.08,2,1,0.602,0.802716208039783,0
1,1,0.08,2,2,0.515,1.48694079101551,1
1,2,0.08,2,2,0.85,0.94753949996084,1
1,3,0.08,1,1,0.743,0.78484987502452,1
1,4,0.08,1,2,0.682,0.961322749964893,0
1,5,0.08,2,2,0.683,0.871681042015553,1
1,6,0.08,1,1,0.649,0.813572416082025,1
1,7,0.08,2,2,0.627,0.601040958077647,1
1,8,0.08,2,1,0.614,0.769008249975741,0
1,9,0.08,2,2,0.759,0.764839375042357,1
1,10,0.08,1,1,0.61,0.904900540946983,1
1,11,0.08,1,1,0.713,0.739250374957919,1
1,12,0.08,2,2,0.714,0.842651500017382,1
1,13,0.08,1,1,0.672,0.797133208019659,1
1,14,0.08,1,1,0.853,0.725146749988198,1
1,15,0.08,2,2,0.824,0.66795466595795,1
1,16,0.08,1,2,0.58,1.13783162506297,0
1,17,0.08,1,2,0.772,0.926267624949105,0
1,18,0.08,1,2,0.522,2.63485129200853,0
1,19,0.08,1,1,0.684,1.26046979101375,1
1,20,0.08,2,2,0.714,0.985931291012093,1
1,21,0.08,2,2,0.705,0.993471749941818,1
1,22,0.08,1,1,0.712,0.904669958050363,1
1,23,0.08,1,1,0.507,1.35418654093519,1
1,24,0.08,2,1,0.572,1.21856966696214,0
1,25,0.08,2,1,0.507,1.76643583306577,0
1,26,0.08,2,2,0.689,1.42690754099749,1
1,27,0.08,1,1,0.606,1.23566558409948,1
1,28,0.08,2,2,0.755,0.747195334057324,1
1,29,0.08,1,1,0.686,0.769938957993872,1
1,30,0.08,1,1,0.682,0.629192625056021,1
1,1,0.06,1,2,0.738,1.05727254203521,0
1,2,0.06,2,2,0.66,0.938618541928008,1
1,3,0.06,1,2,0.704,0.80569587496575,0
1,4,0.06,1,1,0.713,0.94633570802398,1
1,5,0.06,1,1,0.715,1.10236654197797,1
1,6,0.06,2,1,0.816,0.800968666095287,0
1,7,0.06,2,2,0.739,0.907449749996886,1
1,8,0.06,2,1,0.585,1.29362300003413,0
1,9,0.06,2,2,0.596,0.693335540941916,1
1,10,0.06,1,1,0.726,0.754559875000268,1
1,11,0.06,1,1,0.749,0.59553395898547,1
1,12,0.06,2,2,0.76,0.843646583962254,1
1,13,0.06,2,2,0.745,0.803018457954749,1
1,14,0.06,2,1,0.542,0.711019000038505,0
1,15,0.06,2,2,0.718,0.692481208010577,1
1,16,0.06,1,2,0.7,0.642470833961852,0
1,17,0.06,1,1,0.68,0.98250237503089,1
1,18,0.06,2,2,0.62,1.0043075409485,1
1,19,0.06,2,2,0.688,1.1396133749513,1
1,20,0.06,1,1,0.665,0.721723541035317,1
1,21,0.06,2,2,0.577,1.26197216601577,1
1,22,0.06,1,1,0.699,0.72746687498875,1
1,23,0.06,1,2,0.708,0.707089042058215,0
1,24,0.06,2,1,0.676,0.696767584071495,0
1,25,0.06,2,1,0.676,1.0282922090264,0
1,26,0.06,2,2,0.63,1.38012333400548,1
1,27,0.06,1,1,0.636,2.31380954105407,1
1,28,0.06,1,2,0.671,0.734250374953263,0
1,29,0.06,1,2,0.692,1.09185900003649,0
1,30,0.06,2,2,0.618,0.975893541006371,1
1,1,0.06,2,2,0.636,1.14188533299603,1
1,2,0.06,2,2,0.709,0.775859208079055,1
1,3,0.06,2,2,0.756,1.22975358297117,1
1,4,0.06,2,1,0.683,1.14666920795571,0
1,5,0.06,2,2,0.638,1.53852033300791,1
1,6,0.06,2,2,0.718,0.884213708923198,1
1,7,0.06,2,1,0.638,0.979204291943461,0
1,8,0.06,1,2,0.742,1.03633716702461,0
1,9,0.06,2,1,0.591,0.98170637502335,0
1,10,0.06,2,2,0.658,1.19639745797031,1
1,11,0.06,1,1,0.69,0.811716875061393,1
1,12,0.06,1,2,0.674,1.1131738750264,0
1,13,0.06,1,1,0.592,3.20374741707928,1
1,14,0.06,2,2,0.661,1.08214687509462,1
1,15,0.06,2,1,0.6,2.95621395797934,0
1,16,0.06,1,2,0.627,1.67052499996498,0
1,17,0.06,2,2,0.516,2.36367433296982,1
1,18,0.06,2,2,0.688,1.13705529097933,1
1,19,0.06,2,1,0.612,1.38708841707557,0
1,20,0.06,1,1,0.612,1.29911087499931,1
1,21,0.06,1,1,0.715,1.26697833300568,1
1,22,0.06,1,1,0.714,0.790973624913022,1
1,23,0.06,2,1,0.714,0.563243041979149,0
1,24,0.06,2,2,0.69,1.51298662507907,1
1,25,0.06,1,1,0.618,0.887768708053045,1
1,26,0.06,2,2,0.653,1.52315258397721,1
1,27,0.06,1,1,0.844,0.787230250076391,1
1,28,0.06,1,2,0.659,0.978455582982861,0
1,29,0.06,1,1,0.538,2.43467658397276,1
1,30,0.06,2,2,0.653,1.39247620897368,1
1,1,0.06,2,2,0.506,4.48984787496738,1
1,2,0.06,1,2,0.536,1.36792895803228,0
1,3,0.06,1,2,0.641,3.33873812505044,0
1,4,0.06,2,2,0.665,0.938941457890905,1
1,5,0.06,2,2,0.713,0.911342750070617,1
1,6,0.06,1,1,0.729,0.784956499934196,1
1,7,0.06,2,2,0.612,0.853098875028081,1
1,8,0.06,2,1,0.836,0.533551916945726,0
1,9,0.06,2,2,0.669,1.08378491702024,1
1,10,0.06,1,1,0.588,1.22322254104074,1
1,11,0.06,1,2,0.683,1.09770816704258,0
1,12,0.06,2,1,0.678,0.712222957983613,0
1,13,0.06,1,1,0.681,0.867255292017944,1
1,14,0.06,2,2,0.762,0.777651957934722,1
1,15,0.06,1,1,0.71,0.71526750002522,1
1,16,0.06,1,2,0.619,1.37952683295589,0
1,17,0.06,2,1,0.815,0.849694667034782,0
1,18,0.06,2,2,0.627,1.31769345805515,1
1,19,0.06,2,2,0.625,0.793497209087946,1
1,20,0.06,1,1,0.562,0.821360166999511,1
1,21,0.06,2,1,0.625,0.866463833954185,0
1,22,0.06,1,1,0.783,1.00843529193662,1
1,23,0.06,2,1,0.513,2.47761737497058,0
1,24,0.06,1,1,0.656,0.98169266700279,1
1,25,0.06,2,2,0.623,0.793174540973268,1
1,26,0.06,2,2,0.622,0.844547583023086,1
1,27,0.06,1,2,0.608,0.683298083953559,0
1,28,0.06,2,2,0.761,0.755015459028073,1
1,29,0.06,2,1,0.704,0.69103512505535,0
1,30,0.06,2,2,0.623,0.776856333017349,1
1,1,0.06,2,2,0.503,2.71309079194907,1
1,2,0.06,2,1,0.679,1.69463275000453,0
1,3,0.06,1,1,0.57,1.73784204095136,1
1,4,0.06,1,2,0.531,1.95801783294883,0
1,5,0.06,2,1,0.579,1.18517454096582,0
1,6,0.06,1,2,0.569,0.866839416907169,0
1,7,0.06,1,1,0.685,0.925600583897904,1
1,8,0.06,2,1,0.67,1.24869779101573,0
1,9,0.06,2,1,0.586,1.85837000003085,0
1,10,0.06,1,1,0.586,0.882750540971756,1
1,11,0.06,2,2,0.591,1.10288854211103,1
1,12,0.06,2,2,0.635,1.88157091697212,1
1,13,0.06,1,2,0.67,1.26844349992462,0
1,14,0.06,1,1,0.638,1.21700449998025,1
1,15,0.06,2,2,0.623,1.71405062498525,1
1,16,0.06,1,2,0.663,0.928360541001894,0
1,17,0.06,1,2,0.603,0.690326750045642,0
1,18,0.06,1,2,0.561,0.989169916021638,0
1,19,0.06,2,1,0.607,1.26297887496185,0
1,20,0.06,1,1,0.677,0.860794708016329,1
1,21,0.06,2,1,0.683,1.62000979203731,0
1,22,0.06,2,1,0.535,1.47431416693144,0
1,23,0.06,1,2,0.569,1.9210845840862,0
1,24,0.06,2,2,0.562,2.03246704197954,1
1,25,0.06,2,2,0.634,1.14385445904918,1
1,26,0.06,1,2,0.771,1.35177120892331,0
1,27,0.06,2,2,0.607,1.04668637504801,1
1,28,0.06,2,1,0.663,1.56215533299837,0
1,29,0.06,2,2,0.673,0.786667583044618,1
1,30,0.06,1,2,0.599,1.1766414999729,0
10,1,0.08,1,1,0.691,2.71424070800094,1
10,2,0.08,1,1,0.682,0.953787458000079,1
10,3,0.08,1,2,0.509,1.52803441600008,0
10,4,0.08,2,2,0.683,0.924024083000404,1
10,5,0.08,2,2,0.691,0.696425792000809,1
10,6,0.08,2,2,0.992,1.10901299999932,1
10,7,0.08,2,2,0.604,1.04638645799969,1
10,8,0.08,2,2,0.511,1.32955112499985,1
10,9,0.08,2,2,0.699,2.30274866600121,1
10,10,0.08,1,1,0.707,1.25281499999983,1
10,11,0.08,1,1,0.707,0.886437582999861,1
10,12,0.08,2,2,1.027,1.39289545800057,1
10,13,0.08,1,2,0.905,1.25479325000015,0
10,14,0.08,2,2,0.697,1.26252412500071,1
10,15,0.08,2,2,0.609,0.783108500001617,1
10,16,0.08,2,2,0.896,0.838750416000039,1
10,17,0.08,1,1,0.768,1.12053537499924,1
10,18,0.08,2,2,0.615,1.31017895900004,1
10,19,0.08,2,2,0.615,0.886811458000011,1
10,20,0.08,1,1,0.879,1.16509666599995,1
10,21,0.08,2,2,0.989,1.02398983400053,1
10,22,0.08,1,1,1,1.26360899999963,1
10,23,0.08,1,2,0.623,1.03118924999944,0
10,24,0.08,1,1,0.607,1.05325395799991,1
10,25,0.08,1,2,0.608,0.83891500000027,0
10,26,0.08,1,1,0.626,1.08540741700017,1
10,27,0.08,1,1,0.626,0.8242491660003,1
10,28,0.08,2,1,0.622,1.07880716700129,0
10,29,0.08,1,1,0.62,0.928538749998552,1
10,30,0.08,2,1,0.601,0.861359832999369,0
10,1,0.08,2,1,0.501,6.15501462499924,0
10,2,0.08,1,2,0.702,1.21967050000057,0
10,3,0.08,2,2,0.606,1.06474262499978,1
10,4,0.08,2,2,0.699,1.38303445800011,1
10,5,0.08,1,2,0.741,1.40504424999926,0
10,6,0.08,2,2,0.598,1.19784241600064,1
10,7,0.08,2,2,0.91,0.587593291000303,1
10,8,0.08,1,1,0.864,1.13736091600003,1
10,9,0.08,2,2,0.875,0.903639709000345,1
10,10,0.08,1,1,0.592,1.22247912499915,1
10,11,0.08,1,1,0.593,0.655096083999524,1
10,12,0.08,2,2,0.695,0.982980165999834,1
10,13,0.08,2,2,0.599,0.991344874999413,1
10,14,0.08,1,2,0.602,1.00886329199966,0
10,15,0.08,2,2,0.601,0.893594791999931,1
10,16,0.08,1,1,0.99,1.28038029199888,1
10,17,0.08,1,1,1,1.24924983399978,1
10,18,0.08,1,1,0.801,0.830346249998911,1
10,19,0.08,2,2,0.786,1.10256445899904,1
10,20,0.08,1,1,0.693,0.884296000000177,1
10,21,0.08,2,2,0.735,1.40590604199861,1
10,22,0.08,1,1,0.894,1.41000970800087,1
10,23,0.08,1,1,0.894,0.724314416000198,1
10,24,0.08,1,1,0.894,0.629222416999255,1
10,25,0.08,1,2,0.731,1.10582858400085,0
10,26,0.08,1,1,0.818,1.54183266700056,1
10,27,0.08,1,1,0.587,2.46827337499963,1
10,28,0.08,1,1,0.59,0.778793875000702,1
10,29,0.08,1,1,0.59,0.679719333998946,1
10,30,0.08,1,1,0.59,0.824559624999893,1
10,1,0.08,1,1,0.59,1.2808944999997,1
10,2,0.08,1,2,0.655,1.36575512499985,0
10,3,0.08,2,2,0.78,0.910448041000564,1
10,4,0.08,1,1,0.839,1.32773208300023,1
10,5,0.08,1,1,0.968,1.83651387499958,1
10,6,0.08,1,1,0.902,1.16429620899908,1
10,7,0.08,1,1,0.902,0.646042292000857,1
10,8,0.08,2,2,0.862,0.759221917000104,1
10,9,0.08,1,1,0.807,0.603122583999721,1
10,10,0.08,1,1,0.743,0.749629541000104,1
10,11,0.08,2,2,0.7,0.777195208998819,1
10,12,0.08,1,2,0.851,0.812695125001483,0
10,13,0.08,2,2,1.136,0.794498708999527,1
10,14,0.08,2,2,1.09,1.167056667,1
10,15,0.08,2,1,0.795,0.762582875000589,0
10,16,0.08,2,2,0.778,0.67213187499874,1
10,17,0.08,2,2,0.775,0.578165666998757,1
10,18,0.08,2,2,0.942,0.671674667000843,1
10,19,0.08,1,2,0.913,0.71189054199931,0
10,20,0.08,1,2,0.872,0.647529333000421,0
10,21,0.08,2,2,0.674,0.839255082999443,1
10,22,0.08,1,1,0.886,0.671697291001692,1
10,23,0.08,2,2,0.877,0.728308416999425,1
10,24,0.08,2,2,0.904,0.735799542000677,1
10,25,0.08,2,2,0.933,0.856093708000117,1
10,26,0.08,2,2,0.903,0.534620915999767,1
10,27,0.08,2,2,0.759,0.598431874999733,1
10,28,0.08,2,2,0.76,0.449399416000233,1
10,29,0.08,1,1,0.997,0.734390042000086,1
10,30,0.08,1,1,0.887,0.48123729100007,1
10,1,0.08,1,1,0.618,1.31236933299988,1
10,2,0.08,2,2,0.625,1.01489500000025,1
10,3,0.08,1,1,0.602,0.855016832998444,1
10,4,0.08,2,1,0.603,0.599772291998306,0
10,5,0.08,2,2,0.862,0.766564458001085,1
10,6,0.08,1,1,0.812,0.711106374999872,1
10,7,0.08,1,1,0.705,0.749005333998866,1
10,8,0.08,1,1,0.716,0.804736709000281,1
10,9,0.08,2,2,0.794,0.689461457999641,1
10,10,0.08,1,1,0.69,0.695915542000876,1
10,11,0.08,1,2,0.792,1.07053679199998,0
10,12,0.08,1,1,0.858,0.863980292000633,1
10,13,0.08,1,1,0.757,0.785343207999176,1
10,14,0.08,2,2,0.928,0.745382208999217,1
10,15,0.08,2,2,0.858,0.657511708001039,1
10,16,0.08,1,1,0.851,0.7208323750001,1
10,17,0.08,1,1,0.634,0.967979834000289,1
10,18,0.08,2,2,0.853,0.68312454199986,1
10,19,0.08,1,1,0.849,0.686968125000931,1
10,20,0.08,1,1,0.849,0.811164582999481,1
10,21,0.08,1,2,0.793,0.763029499999902,0
10,22,0.08,2,2,0.952,0.625648834000458,1
10,23,0.08,1,1,0.921,0.736375083000894,1
10,24,0.08,2,2,0.789,0.709339041999556,1
10,25,0.08,1,1,0.961,0.943856500000038,1
10,26,0.08,1,1,1,0.878868292000334,1
10,27,0.08,2,2,0.973,0.699942084000213,1
10,28,0.08,1,1,0.879,0.823269915999845,1
10,29,0.08,2,2,1.045,0.751423665999027,1
10,30,0.08,1,2,1.066,0.887177458000224,0
10,1,0.06,1,1,0.962,1.53294033299971,1
10,2,0.06,1,2,0.774,0.640170083001067,0
10,3,0.06,1,2,0.778,0.646783833000882,0
10,4,0.06,2,2,0.71,0.808621582998967,1
10,5,0.06,1,2,0.718,0.55810179099899,0
10,6,0.06,1,2,0.79,0.831499333000465,0
10,7,0.06,2,2,0.879,0.654429542000798,1
10,8,0.06,2,2,0.879,0.561258290999831,1
10,9,0.06,2,2,0.879,0.511986792000243,1
10,10,0.06,1,1,0.879,0.806251165999129,1
10,11,0.06,1,2,0.744,0.54280929199922,0
10,12,0.06,1,1,1,0.717804249999972,1
10,13,0.06,2,2,0.807,0.914146499999333,1
10,14,0.06,1,1,0.886,0.875323165999362,1
10,15,0.06,1,1,0.883,0.929604625000138,1
10,16,0.06,1,1,1,0.807036083000639,1
10,17,0.06,2,2,0.929,0.750762499999837,1
10,18,0.06,1,2,0.929,0.632407250001052,0
10,19,0.06,1,1,0.951,0.686697416998868,1
10,20,0.06,1,1,0.752,1.22232637500019,1
10,21,0.06,2,2,0.777,0.769775082999331,1
10,22,0.06,2,2,0.776,0.607954000000973,1
10,23,0.06,1,2,0.776,0.512369500000204,0
10,24,0.06,1,2,0.776,0.849148624998634,0
10,25,0.06,2,1,0.871,1.64142275000086,0
10,26,0.06,2,2,0.904,0.750401208000767,1
10,27,0.06,2,1,0.776,0.782048000000941,0
10,28,0.06,2,2,0.802,0.718032999999195,1
10,29,0.06,1,2,0.796,0.679916582999795,0
10,30,0.06,2,2,0.796,0.53623483299998,1
10,1,0.06,2,2,0.784,1.05643195800076,1
10,2,0.06,1,2,0.776,1.31733512499886,0
10,3,0.06,2,2,0.771,0.565851625000505,1
10,4,0.06,2,2,0.771,0.632822083000065,1
10,5,0.06,1,2,0.771,0.6159604580007,0
10,6,0.06,1,1,0.832,0.640079959001014,1
10,7,0.06,1,1,0.832,0.680166541998915,1
10,8,0.06,2,1,0.832,0.797313416000179,0
10,9,0.06,1,1,0.832,0.553767749999679,1
10,10,0.06,2,2,1.004,0.713159250000899,1
10,11,0.06,2,1,0.812,0.74416249999922,0
10,12,0.06,2,2,0.852,0.752803792000122,1
10,13,0.06,2,2,0.852,1.05002387500099,1
10,14,0.06,1,1,0.974,0.743699417000244,1
10,15,0.06,1,1,0.758,0.745060457998989,1
10,16,0.06,2,2,0.856,0.782120083000336,1
10,17,0.06,2,2,0.679,0.927195541000401,1
10,18,0.06,1,1,0.663,0.864323624999088,1
10,19,0.06,1,1,0.663,0.81541208300041,1
10,20,0.06,1,1,0.663,0.722224832999927,1
10,21,0.06,1,1,0.663,0.73598149999998,1
10,22,0.06,1,1,0.663,0.848525749999681,1
10,23,0.06,1,1,0.663,0.670089667000866,1
10,24,0.06,1,1,0.663,0.726099540999712,1
10,25,0.06,1,1,0.663,0.63122574999943,1
10,26,0.06,1,1,0.808,0.838910250000481,1
10,27,0.06,2,2,0.796,0.853449958998681,1
10,28,0.06,2,2,0.767,0.87143954199928,1
10,29,0.06,1,1,0.695,0.909619916999873,1
10,30,0.06,1,2,0.677,1.13618662500085,0
10,1,0.06,2,2,0.775,4.58160991700061,1
10,2,0.06,1,1,0.768,0.739351416999853,1
10,3,0.06,2,1,0.768,0.622747167000853,0
10,4,0.06,1,2,0.691,1.19341258399982,0
10,5,0.06,2,2,0.521,1.27984837500117,1
10,6,0.06,2,1,0.673,1.67799562499931,0
10,7,0.06,2,2,0.719,1.81461191600101,1
10,8,0.06,1,2,0.676,0.846288166001614,0
10,9,0.06,1,1,0.649,1.51203625000016,1
10,10,0.06,2,1,0.649,0.812628125000629,0
10,11,0.06,1,2,0.74,1.09346112499952,0
10,12,0.06,1,1,0.501,1.17421320799986,1
10,13,0.06,1,1,0.631,1.70430233300067,1
10,14,0.06,2,1,0.619,1.92333879199941,0
10,15,0.06,2,1,0.619,0.60182395800075,0
10,16,0.06,1,1,0.619,0.605608292000397,1
10,17,0.06,1,1,0.619,0.711764416999358,1
10,18,0.06,1,1,0.687,1.52615420799884,1
10,19,0.06,2,2,0.699,0.98338241700003,1
10,20,0.06,2,1,0.595,1.79098104200057,0
10,21,0.06,2,2,0.716,1.02972083399982,1
10,22,0.06,1,1,0.715,1.36322933300107,1
10,23,0.06,1,2,0.755,1.51593320800021,0
10,24,0.06,2,1,0.672,1.17408195799908,0
10,25,0.06,2,2,0.666,0.871212000000014,1
10,26,0.06,2,2,0.666,0.775239165999665,1
10,27,0.06,2,2,0.666,0.785332915998879,1
10,28,0.06,2,2,0.666,0.575904957999228,1
10,29,0.06,2,2,0.666,0.593733292000252,1
10,30,0.06,2,2,0.811,1.14222366600006,1
10,1,0.06,2,2,0.812,1.4548218330001,1
10,2,0.06,2,1,0.692,0.927928167000573,0
10,3,0.06,2,2,0.801,1.1373868339997,1
10,4,0.06,2,1,0.826,0.971544457999698,0
10,5,0.06,1,2,0.786,0.983184666998568,0
10,6,0.06,2,2,0.694,0.792876707999312,1
10,7,0.06,2,2,0.695,0.70422333300121,1
10,8,0.06,2,2,0.695,0.550310374999754,1
10,9,0.06,1,2,0.695,0.689837207999517,0
10,10,0.06,1,2,0.779,1.33756325000104,0
10,11,0.06,2,2,0.747,0.806119124999896,1
10,12,0.06,1,1,0.902,0.829760374999751,1
10,13,0.06,2,2,0.879,1.55093349999879,1
10,14,0.06,1,1,0.901,0.885481417000847,1
10,15,0.06,2,2,0.856,0.766017083999031,1
10,16,0.06,1,2,0.792,0.776130541999009,0
10,17,0.06,2,2,0.927,0.658375500001057,1
10,18,0.06,1,1,0.782,0.705938458000674,1
10,19,0.06,1,1,0.8,0.713708124998448,1
10,20,0.06,2,2,1.022,0.704116917000647,1
10,21,0.06,1,2,0.995,0.943728959000509,0
10,22,0.06,1,2,0.727,0.686382457999571,0
10,23,0.06,1,2,0.822,0.63859658399997,0
10,24,0.06,1,1,0.804,1.00180449999971,1
10,25,0.06,1,2,0.724,0.774903542000175,0
10,26,0.06,2,2,0.798,0.727029374998892,1
10,27,0.06,2,2,0.798,0.638375541999267,1
10,28,0.06,2,2,0.798,0.590463374999672,1
10,29,0.06,1,2,0.798,0.649617958999443,0
10,30,0.06,2,2,0.798,0.695694333000574,1
10,1,0.045,1,1,0.773,7.25083779099987,1
10,2,0.045,2,2,0.908,0.646579500000371,1
10,3,0.045,2,2,0.681,0.839054916999885,1
10,4,0.045,2,2,0.681,0.546951457999967,1
10,5,0.045,1,1,0.763,0.582599875000597,1
10,6,0.045,2,2,0.892,0.632920709000246,1
10,7,0.045,1,1,0.94,0.75321625000106,1
10,8,0.045,1,2,0.847,0.686865415998909,0
10,9,0.045,2,2,0.694,0.759892207999656,1
10,10,0.045,1,2,0.775,0.646651999999449,0
10,11,0.045,1,1,0.868,0.655092334000074,1
10,12,0.045,1,1,0.719,0.855082666999806,1
10,13,0.045,2,1,0.671,0.722066667000036,0
10,14,0.045,2,2,0.89,0.726843374999589,1
10,15,0.045,1,2,0.811,0.919529167000292,0
10,16,0.045,1,1,0.706,0.935618125000474,1
10,17,0.045,2,1,0.707,0.966880291000052,0
10,18,0.045,2,2,0.853,1.66333058300006,1
10,19,0.045,2,1,0.594,3.97377508299905,0
10,20,0.045,2,2,0.896,0.648048541999742,1
10,21,0.045,2,2,0.836,0.605689166999582,1
10,22,0.045,2,2,0.849,0.7117482499998,1
10,23,0.045,1,2,0.849,0.575717417001215,0
10,24,0.045,1,1,0.887,0.900613249999878,1
10,25,0.045,2,2,0.952,0.7316808329997,1
10,26,0.045,2,2,0.814,0.87062799999876,1
10,27,0.045,2,2,0.775,0.727523916999417,1
10,28,0.045,2,2,0.789,1.32621116700102,1
10,29,0.045,2,2,0.732,0.845796583000265,1
10,30,0.045,2,2,0.831,0.678313042000809,1
10,1,0.045,1,1,0.719,1.27358925000044,1
10,2,0.045,2,2,0.72,1.05238320799981,1
10,3,0.045,2,2,0.721,1.53740908399959,1
10,4,0.045,2,2,0.742,0.75722662500084,1
10,5,0.045,1,1,0.719,0.943695709000167,1
10,6,0.045,2,2,0.993,0.56998137499977,1
10,7,0.045,2,2,0.933,0.630177040999115,1
10,8,0.045,1,1,0.803,0.9435374579989,1
10,9,0.045,1,2,0.714,0.838510833000328,0
10,10,0.045,1,1,0.66,0.744439999998576,1
10,11,0.045,2,1,0.66,1.50381904099959,0
10,12,0.045,1,2,0.882,0.725200749999203,0
10,13,0.045,2,1,0.65,1.14481387500018,0
10,14,0.045,2,2,0.721,0.687198625000747,1
10,15,0.045,1,2,0.746,0.866082582999297,0
10,16,0.045,1,2,0.735,0.694587332998708,0
10,17,0.045,2,2,0.722,0.65006537500085,1
10,18,0.045,1,2,0.713,0.681190584000433,0
10,19,0.045,1,2,0.844,0.61530995800058,0
10,20,0.045,2,2,0.906,0.686884417000329,1
10,21,0.045,1,2,0.924,0.654567416999271,0
10,22,0.045,2,1,0.796,1.1985792079995,0
10,23,0.045,2,2,0.748,0.611721916999159,1
10,24,0.045,1,2,0.81,0.72727629200017,0
10,25,0.045,1,2,0.827,0.960670375001428,0
10,26,0.045,2,1,0.707,0.951919457998883,0
10,27,0.045,1,1,0.76,0.783445584000219,1
10,28,0.045,2,2,0.845,0.990308500000538,1
10,29,0.045,1,1,0.688,0.680987167001149,1
10,30,0.045,1,2,0.874,0.662308958000722,0
10,1,0.045,2,2,0.799,1.58149195799888,1
10,2,0.045,1,1,0.744,1.05227512499914,1
10,3,0.045,1,2,0.686,1.14232654199986,0
10,4,0.045,2,1,0.777,0.759336791999885,0
10,5,0.045,1,2,0.968,0.735709915999905,0
10,6,0.045,1,1,0.667,0.693121582999083,1
10,7,0.045,1,1,0.947,0.847834416999831,1
10,8,0.045,2,2,0.802,0.697372874999928,1
10,9,0.045,1,2,0.878,0.6575283330003,0
10,10,0.045,1,1,0.774,0.910876916001143,1
10,11,0.045,1,1,0.772,0.632462042000043,1
10,12,0.045,2,1,0.772,0.625533249998625,0
10,13,0.045,1,1,0.772,0.729514708000352,1
10,14,0.045,1,1,0.772,0.758081209000011,1
10,15,0.045,2,2,0.854,0.949916916999427,1
10,16,0.045,1,1,0.716,1.06186504100151,1
10,17,0.045,1,1,0.74,1.82603737499994,1
10,18,0.045,2,2,0.733,0.798143582998819,1
10,19,0.045,1,2,0.733,0.807381249998798,0
10,20,0.045,2,2,0.733,0.556251959000292,1
10,21,0.045,1,1,0.769,0.790061500001684,1
10,22,0.045,1,1,0.769,0.72207733399955,1
10,23,0.045,2,1,0.718,2.13646870800039,0
10,24,0.045,1,2,0.703,0.752041749999989,0
10,25,0.045,1,2,0.865,0.8777571669998,0
10,26,0.045,1,2,0.846,0.872307790999912,0
10,27,0.045,2,2,0.751,0.791691708000144,1
10,28,0.045,2,2,0.752,0.535268249999717,1
10,29,0.045,1,1,0.95,0.637179333001768,1
10,30,0.045,1,2,0.625,0.689635291999366,0
10,1,0.045,2,2,0.908,0.998601500001314,1
10,2,0.045,2,2,0.743,0.840960040999562,1
10,3,0.045,1,1,0.607,1.08044758299911,1
10,4,0.045,2,2,0.692,0.716425334001542,1
10,5,0.045,1,2,0.691,0.567395624999335,0
10,6,0.045,2,2,0.854,0.809070999999676,1
10,7,0.045,1,2,0.854,0.694994707999285,0
10,8,0.045,2,2,0.793,1.01682962499945,1
10,9,0.045,1,1,0.609,1.10931441700086,1
10,10,0.045,2,2,0.728,1.36015079200115,1
10,11,0.045,1,2,0.728,0.842403334001574,0
10,12,0.045,2,2,0.868,0.614222124999287,1
10,13,0.045,1,1,0.798,0.951664457999868,1
10,14,0.045,1,2,0.728,0.82273775000067,0
10,15,0.045,1,1,0.661,1.12934920800035,1
10,16,0.045,2,2,0.723,0.815814582998428,1
10,17,0.045,1,2,0.723,0.730052124999929,0
10,18,0.045,1,1,0.804,1.04751029200088,1
10,19,0.045,1,2,0.669,1.06810050000058,0
10,20,0.045,2,2,0.731,0.682401166999625,1
10,21,0.045,2,2,0.742,0.799111333000837,1
10,22,0.045,1,1,0.772,0.862482124999588,1
10,23,0.045,2,2,0.837,0.69459016700057,1
10,24,0.045,2,2,0.678,0.992152916998748,1
10,25,0.045,1,1,0.831,0.896671874999811,1
10,26,0.045,1,1,0.763,0.885213000001386,1
10,27,0.045,2,2,0.788,0.85413724999853,1
10,28,0.045,1,1,0.797,1.09120595799868,1
10,29,0.045,1,1,0.686,1.34182537500055,1
10,30,0.045,2,1,0.686,0.709529250001651,0
10,1,0.08,2,2,0.697,1.01967570899978,1
10,2,0.08,1,1,0.814,1.02319999999963,1
10,3,0.08,2,2,0.795,0.580988333000278,1
10,4,0.08,2,2,0.794,0.619220624999798,1
10,5,0.08,1,2,0.507,1.07052375000058,0
10,6,0.08,2,2,0.727,0.57608587499999,1
10,7,0.08,1,2,0.706,0.656916208001348,0
10,8,0.08,1,1,0.847,0.583482834001188,1
10,9,0.08,1,1,0.847,0.577068124999641,1
10,10,0.08,1,1,0.694,0.632470832999388,1
10,11,0.08,1,1,0.601,0.760373125000115,1
10,12,0.08,1,1,0.601,0.504686042000685,1
10,13,0.08,2,2,0.767,0.734436665999965,1
10,14,0.08,2,2,0.719,0.805377708000378,1
10,15,0.08,2,2,0.719,0.487813499999902,1
10,16,0.08,1,1,0.691,0.655482541998936,1
10,17,0.08,2,2,0.754,0.599279375001061,1
10,18,0.08,2,2,0.754,0.520415417000549,1
10,19,0.08,2,2,0.754,0.558421583000381,1
10,20,0.08,1,2,0.754,0.517248459000257,0
10,21,0.08,2,2,0.754,0.538274832999377,1
10,22,0.08,1,2,0.751,0.545339249998506,0
10,23,0.08,1,2,0.751,0.431757459000437,0
10,24,0.08,2,2,0.708,1.02773320899905,1
10,25,0.08,2,2,0.708,0.600920875000156,1
10,26,0.08,1,1,0.809,0.888547124999604,1
10,27,0.08,2,2,0.722,0.566812249999202,1
10,28,0.08,1,2,0.722,0.566922292000527,0
10,29,0.08,1,1,0.739,0.599411125000188,1
10,30,0.08,2,2,0.789,0.433653083999161,1
10,1,0.08,2,2,0.892,1.18118304100062,1
10,2,0.08,2,2,0.658,0.638362457999392,1
10,3,0.08,2,2,0.812,0.688653832999989,1
10,4,0.08,1,1,0.684,1.2158183749998,1
10,5,0.08,1,1,0.684,0.555087791000915,1
10,6,0.08,2,2,0.782,0.512936625000293,1
10,7,0.08,1,1,0.619,0.704298250000647,1
10,8,0.08,2,2,1.021,0.627873999999792,1
10,9,0.08,2,2,0.815,0.654719457999818,1
10,10,0.08,2,2,0.815,0.526164875000177,1
10,11,0.08,1,1,0.778,0.716992875000869,1
10,12,0.08,1,1,0.778,0.678746417001094,1
10,13,0.08,2,2,0.72,0.7299197500015,1
10,14,0.08,1,1,0.649,0.730228167001769,1
10,15,0.08,2,2,0.841,0.574952249999114,1
10,16,0.08,2,2,0.947,0.511833624999781,1
10,17,0.08,1,1,0.734,0.50348487500014,1
10,18,0.08,2,2,0.72,0.778381000000081,1
10,19,0.08,1,1,0.733,0.52930437500072,1
10,20,0.08,1,1,0.707,0.556641334000233,1
10,21,0.08,2,2,0.773,0.661518375000014,1
10,22,0.08,2,2,0.773,0.601227666000341,1
10,23,0.08,1,1,0.833,0.524312208000993,1
10,24,0.08,1,1,0.832,0.666896333001205,1
10,25,0.08,1,1,0.832,0.60750141599965,1
10,26,0.08,1,1,0.802,0.637270749999516,1
10,27,0.08,2,2,0.79,0.775011250001626,1
10,28,0.08,1,2,0.791,0.560667249999824,0
10,29,0.08,2,2,0.787,0.93722070900003,1
10,30,0.08,2,2,0.787,0.564892000000327,1
10,1,0.08,2,2,0.811,0.856224916999054,1
10,2,0.08,1,1,0.783,0.664141792000009,1
10,3,0.08,1,1,0.783,0.553209457999401,1
10,4,0.08,2,2,0.775,0.613337332999436,1
10,5,0.08,2,2,0.777,0.581684541999493,1
10,6,0.08,1,1,0.819,0.74734966700089,1
10,7,0.08,1,1,0.819,0.500319957998727,1
10,8,0.08,2,1,0.806,0.783618041999944,0
10,9,0.08,1,1,0.806,0.510093124999912,1
10,10,0.08,1,1,0.806,0.618602874999851,1
10,11,0.08,2,2,0.812,0.76400541700059,1
10,12,0.08,1,1,0.869,0.640210167000987,1
10,13,0.08,2,2,0.774,0.665474584000549,1
10,14,0.08,2,2,0.723,0.901237959000355,1
10,15,0.08,1,1,0.685,0.744191292000323,1
10,16,0.08,2,2,1.016,0.694812542000363,1
10,17,0.08,1,1,0.87,0.687924042000304,1
10,18,0.08,2,2,0.782,0.586005541999839,1
10,19,0.08,1,1,0.948,0.607856958000411,1
10,20,0.08,1,1,0.798,0.686967458001163,1
10,21,0.08,1,1,0.799,0.67270550000103,1
10,22,0.08,2,2,0.727,0.568233166999562,1
10,23,0.08,2,2,0.895,0.654358416000832,1
10,24,0.08,1,2,0.761,0.711059999999634,0
10,25,0.08,2,2,0.656,0.574642083000072,1
10,26,0.08,2,2,0.874,0.60831591600072,1
10,27,0.08,1,1,0.855,0.558913625000059,1
10,28,0.08,2,1,0.588,0.600612457999887,0
10,29,0.08,1,1,0.713,0.646021583999755,1
10,30,0.08,2,2,0.915,0.756821458000559,1
10,1,0.08,1,1,0.782,1.29655870900024,1
10,2,0.08,1,2,0.828,0.829322583000248,0
10,3,0.08,1,2,0.788,0.887075249998816,0
10,4,0.08,1,2,0.787,0.605084834000081,0
10,5,0.08,2,2,0.787,0.559086249999382,1
10,6,0.08,2,2,0.787,0.481917082999644,1
10,7,0.08,2,2,0.787,0.557673291001265,1
10,8,0.08,1,2,0.697,1.44123691700042,0
10,9,0.08,2,2,0.697,0.773186499998701,1
10,10,0.08,2,2,0.707,1.41147633400033,1
10,11,0.08,1,1,0.834,0.720221042000048,1
10,12,0.08,2,2,0.724,1.22257608299878,1
10,13,0.08,2,2,0.895,0.877598958999442,1
10,14,0.08,1,1,0.821,0.824171042000671,1
10,15,0.08,2,2,0.813,0.568978916999185,1
10,16,0.08,2,1,0.822,0.646878290999666,0
10,17,0.08,1,1,0.822,1.33645279199845,1
10,18,0.08,2,2,0.589,0.893670667001061,1
10,19,0.08,1,2,0.892,0.733983041000101,0
10,20,0.08,1,1,0.773,0.609590791000301,1
10,21,0.08,1,1,0.74,0.696327416999338,1
10,22,0.08,2,2,0.889,0.514335833000587,1
10,23,0.08,2,2,0.713,0.831641415999911,1
10,24,0.08,2,2,0.887,0.582699582999339,1
10,25,0.08,2,2,0.937,0.625864417001139,1
10,26,0.08,1,1,0.892,0.755331332999049,1
10,27,0.08,1,2,0.76,0.553240374998495,0
10,28,0.08,1,1,0.822,0.632998916998986,1
10,29,0.08,1,1,0.859,0.727215834000162,1
10,30,0.08,2,2,0.967,0.680372791000991,1
10,1,0.045,2,2,0.731,0.650557250000929,1
10,2,0.045,2,2,0.909,0.608524291999856,1
10,3,0.045,2,2,0.854,0.673434750000524,1
10,4,0.045,1,1,0.743,0.801028249999945,1
10,5,0.045,2,2,0.742,1.13487570899997,1
10,6,0.045,2,1,0.93,0.597558249999565,0
10,7,0.045,1,2,0.792,0.55877154099835,0
10,8,0.045,1,1,0.757,0.680703207999613,1
10,9,0.045,2,1,0.772,0.849139542000557,0
10,10,0.045,1,2,1.173,0.832968458000323,0
10,11,0.045,1,2,0.678,0.977540584000963,0
10,12,0.045,1,1,0.649,0.681077041999743,1
10,13,0.045,1,1,0.649,0.830911916998957,1
10,14,0.045,1,1,0.649,1.27343724999992,1
10,15,0.045,1,2,0.802,0.81438770800014,0
10,16,0.045,2,1,0.711,0.574675583000499,0
10,17,0.045,1,2,0.737,0.846999125000366,0
10,18,0.045,2,1,0.668,0.68043658300121,0
10,19,0.045,2,2,0.736,0.504888499999652,1
10,20,0.045,1,2,0.732,0.566751667000062,0
10,21,0.045,1,1,0.899,0.551244500000394,1
10,22,0.045,2,2,0.723,0.9037695420011,1
10,23,0.045,1,1,0.71,1.17603175000113,1
10,24,0.045,2,2,0.759,0.717231458000242,1
10,25,0.045,2,1,0.718,0.767578917000719,0
10,26,0.045,1,2,0.833,0.641116583999974,0
10,27,0.045,2,2,0.663,0.552424667001105,1
10,28,0.045,2,2,0.661,0.568713667000338,1
10,29,0.045,1,2,0.661,0.814809749999768,0
10,30,0.045,2,1,0.855,0.90141075000065,0
10,1,0.045,2,1,0.831,1.00816208299875,0
10,2,0.045,1,1,0.799,0.872127459000694,1
10,3,0.045,1,1,0.706,0.775821791999988,1
10,4,0.045,1,2,0.554,0.752336374998777,0
10,5,0.045,1,1,0.852,1.0250897499991,1
10,6,0.045,1,1,0.807,0.758984084000986,1
10,7,0.045,1,1,0.6,2.3445635829994,1
10,8,0.045,2,2,0.87,0.740627332999793,1
10,9,0.045,1,1,0.668,1.96098004199848,1
10,10,0.045,1,2,0.628,1.67673554099929,0
10,11,0.045,1,1,0.865,0.815286499999274,1
10,12,0.045,2,1,0.633,1.3434274579995,0
10,13,0.045,1,2,0.712,0.718371249999109,0
10,14,0.045,2,2,0.714,0.815931082999668,1
10,15,0.045,1,1,0.818,1.05542883399903,1
10,16,0.045,2,2,0.736,1.125234000001,1
10,17,0.045,1,2,0.612,1.34947358300087,0
10,18,0.045,1,2,0.671,0.735035000001517,0
10,19,0.045,2,2,0.688,3.48259420900104,1
10,20,0.045,2,2,0.738,0.932138291998854,1
10,21,0.045,2,2,0.738,0.671902792000765,1
10,22,0.045,1,1,0.875,0.783050500000172,1
10,23,0.045,2,2,0.759,0.664613375000044,1
10,24,0.045,2,2,0.729,1.10228950000055,1
10,25,0.045,1,2,0.736,0.618801333999727,0
10,26,0.045,1,2,0.749,0.479885374999867,0
10,27,0.045,1,1,0.913,0.651323375001084,1
10,28,0.045,1,2,0.749,0.697123416999602,0
10,29,0.045,2,2,0.749,0.695634208999763,1
10,30,0.045,1,1,0.753,0.860736250000627,1
10,1,0.045,1,1,0.681,0.920950583000376,1
10,2,0.045,1,2,0.737,0.720992958000352,0
10,3,0.045,2,1,0.826,0.655200832999981,0
10,4,0.045,1,1,0.675,0.62337558299987,1
10,5,0.045,2,1,0.677,0.512920375000249,0
10,6,0.045,1,1,0.703,0.638997250000102,1
10,7,0.045,2,2,0.839,0.748882542000501,1
10,8,0.045,1,1,0.802,0.661519625000437,1
10,9,0.045,1,1,0.747,0.827457249999497,1
10,10,0.045,2,1,0.747,0.584150915999999,0
10,11,0.045,2,2,0.737,0.86493366600007,1
10,12,0.045,1,2,0.567,0.942627999998876,0
10,13,0.045,2,1,0.862,0.605228667000119,0
10,14,0.045,1,1,0.712,0.655744499999855,1
10,15,0.045,1,2,0.833,0.615922958999363,0
10,16,0.045,1,2,0.653,0.832641875000263,0
10,17,0.045,2,2,0.721,0.74187137500121,1
10,18,0.045,1,1,0.762,0.6638669999993,1
10,19,0.045,2,1,0.754,0.838210083000376,0
10,20,0.045,1,2,0.724,0.70634712500032,0
10,21,0.045,2,1,0.937,0.83887012500054,0
10,22,0.045,1,1,0.817,0.652168374999746,1
10,23,0.045,2,1,0.738,0.622555583000576,0
10,24,0.045,1,1,0.916,1.15402774999893,1
10,25,0.045,1,1,0.757,0.846810208000534,1
10,26,0.045,2,1,0.735,1.01516212500064,0
10,27,0.045,1,1,0.851,0.798940958000458,1
10,28,0.045,2,2,0.959,1.35991795799964,1
10,29,0.045,1,1,0.827,0.734024665998732,1
10,30,0.045,2,1,0.827,0.736554249999244,0
10,1,0.045,1,1,0.766,1.02531416599959,1
10,2,0.045,2,2,0.805,0.63959341699956,1
10,3,0.045,2,2,0.773,0.604992666998442,1
10,4,0.045,2,2,0.773,0.633927667000535,1
10,5,0.045,2,2,0.773,0.486053458000242,1
10,6,0.045,1,2,0.773,0.752019875000769,0
10,7,0.045,2,2,0.773,0.506590291999601,1
10,8,0.045,2,2,0.773,0.472226292000414,1
10,9,0.045,2,2,0.773,0.696004375000484,1
10,10,0.045,2,2,0.773,0.448712125000384,1
10,11,0.045,1,2,0.773,0.416433332999077,0
10,12,0.045,2,2,0.773,0.445155666999199,1
10,13,0.045,2,2,0.773,0.454383457999938,1
10,14,0.045,2,2,0.773,0.568821791999653,1
10,15,0.045,2,2,0.773,0.429197458000999,1
10,16,0.045,1,2,0.773,0.393895709001299,0
10,17,0.045,1,1,0.824,1.00091749999956,1
10,18,0.045,2,2,0.674,1.29739449999943,1
10,19,0.045,2,2,0.682,0.7978745420005,1
10,20,0.045,2,2,0.682,0.545205917000203,1
10,21,0.045,1,2,0.682,0.62378500000159,0
10,22,0.045,1,2,0.682,0.695064999999886,0
10,23,0.045,2,2,0.682,0.751447833999919,1
10,24,0.045,2,2,0.682,0.817112708000423,1
10,25,0.045,2,1,0.696,0.985927542000354,0
10,26,0.045,2,2,0.857,0.768322750000152,1
10,27,0.045,2,2,0.776,0.77503649999926,1
10,28,0.045,2,1,0.707,0.629781874999026,0
10,29,0.045,2,2,0.67,0.784968291998666,1
10,30,0.045,1,2,0.685,0.716447416998562,0
10,1,0.06,2,2,0.754,0.757109375001164,1
10,2,0.06,1,2,0.809,0.760421209000924,0
10,3,0.06,2,2,0.756,0.78164958400157,1
10,4,0.06,2,1,0.811,0.879741541999465,0
10,5,0.06,2,2,0.793,0.733981458999551,1
10,6,0.06,2,1,0.634,0.910325374999957,0
10,7,0.06,1,1,0.695,0.543284999999742,1
10,8,0.06,2,2,1.111,0.670973542000866,1
10,9,0.06,1,1,0.674,0.882497417000195,1
10,10,0.06,2,1,0.638,0.727140083999984,0
10,11,0.06,1,1,0.691,0.517559041998538,1
10,12,0.06,2,1,0.721,0.529252249998535,0
10,13,0.06,2,2,0.786,0.719007499999861,1
10,14,0.06,1,1,0.717,0.703306125000381,1
10,15,0.06,1,1,0.661,0.647265458001129,1
10,16,0.06,1,1,0.802,0.720294791999549,1
10,17,0.06,1,1,0.802,0.690675124998961,1
10,18,0.06,2,1,0.802,0.71967395899992,0
10,19,0.06,1,2,1,0.726770040999327,0
10,20,0.06,2,2,1.038,1.02470404199994,1
10,21,0.06,2,1,0.706,0.794470124999862,0
10,22,0.06,1,1,0.68,0.740535167000417,1
10,23,0.06,2,2,0.944,0.831780541000626,1
10,24,0.06,2,1,0.75,0.76887508299842,0
10,25,0.06,1,1,0.613,0.560527292000188,1
10,26,0.06,2,2,0.688,0.944612792000044,1
10,27,0.06,2,2,0.674,0.573588167000707,1
10,28,0.06,2,2,0.674,0.546249167000497,1
10,29,0.06,2,2,0.674,0.455595625000569,1
10,30,0.06,1,1,0.818,1.45578904199829,1
10,1,0.06,1,2,0.68,1.34625174999928,0
10,2,0.06,1,1,0.802,0.789550666999276,1
10,3,0.06,1,2,0.667,0.730913000001237,0
10,4,0.06,1,2,0.753,1.032112375,0
10,5,0.06,1,1,0.812,1.19219074999819,1
10,6,0.06,1,2,0.807,0.791018208999958,0
10,7,0.06,2,2,0.793,0.879828167000596,1
10,8,0.06,2,2,0.802,0.655715916998815,1
10,9,0.06,2,2,0.815,0.726110707999396,1
10,10,0.06,2,2,0.814,0.727420207998875,1
10,11,0.06,1,2,0.814,0.791513207999742,0
10,12,0.06,2,2,0.814,0.630753790999734,1
10,13,0.06,1,2,0.814,0.697407625000778,0
10,14,0.06,1,1,0.721,2.02156166699933,1
10,15,0.06,2,2,0.73,0.756135708999864,1
10,16,0.06,2,2,0.73,0.494127624999237,1
10,17,0.06,1,1,0.695,0.984417290999772,1
10,18,0.06,1,1,0.695,0.607811959000173,1
10,19,0.06,2,2,0.866,0.785200166999857,1
10,20,0.06,1,2,0.826,0.607769750000443,0
10,21,0.06,2,1,0.635,0.936597083000379,0
10,22,0.06,2,2,0.695,0.584040249999816,1
10,23,0.06,2,2,0.739,0.781152957999439,1
10,24,0.06,1,1,0.792,0.751902500000142,1
10,25,0.06,2,1,0.705,1.59059816599984,0
10,26,0.06,2,1,0.696,1.62998474999949,0
10,27,0.06,1,1,0.696,1.19859270800043,1
10,28,0.06,2,2,1.019,0.701067500000136,1
10,29,0.06,2,2,0.734,0.934019415999501,1
10,30,0.06,2,1,0.624,0.751339124999504,0
10,1,0.06,2,2,0.817,0.974136875000113,1
10,2,0.06,1,1,1,0.725404374999925,1
10,3,0.06,2,2,0.643,0.77761562500018,1
10,4,0.06,2,2,0.68,0.566758582999682,1
10,5,0.06,1,2,0.681,0.664470415998949,0
10,6,0.06,1,1,0.715,0.7174398749994,1
10,7,0.06,2,2,0.739,0.546004083998923,1
10,8,0.06,2,2,0.722,0.774670790999153,1
10,9,0.06,2,2,0.715,0.887613542001418,1
10,10,0.06,2,2,0.826,0.870756792000975,1
10,11,0.06,1,2,0.827,0.647118791999674,0
10,12,0.06,2,2,0.827,0.529279624999617,1
10,13,0.06,1,1,1,0.775108957999691,1
10,14,0.06,2,2,0.529,0.619496416000402,1
10,15,0.06,2,2,0.673,0.559702459000619,1
10,16,0.06,1,1,0.797,0.71509579099984,1
10,17,0.06,2,2,0.803,0.62669779099997,1
10,18,0.06,2,2,0.858,0.64751087500008,1
10,19,0.06,2,2,0.84,0.684576125000603,1
10,20,0.06,1,2,0.801,0.76661683400016,0
10,21,0.06,2,2,0.8,0.592919332999372,1
10,22,0.06,1,2,0.8,0.487367499999891,0
10,23,0.06,1,2,0.8,0.558950333999746,0
10,24,0.06,2,2,0.953,0.620919082999535,1
10,25,0.06,1,1,0.883,0.623822249999648,1
10,26,0.06,2,2,0.871,0.596922125001583,1
10,27,0.06,2,2,0.796,0.509155125000689,1
10,28,0.06,1,2,0.796,0.546327582998856,0
10,29,0.06,1,2,0.835,0.589841292001438,0
10,30,0.06,1,2,0.937,0.670708082998317,0
10,1,0.06,2,2,0.806,0.854436583000279,1
10,2,0.06,1,1,0.766,0.840184290998877,1
10,3,0.06,2,1,0.835,1.03681462500026,0
10,4,0.06,2,2,0.833,0.851918875001502,1
10,5,0.06,1,2,0.834,0.512621292000404,0
10,6,0.06,2,2,0.834,0.553146917000049,1
10,7,0.06,2,2,0.829,0.573176417001378,1
10,8,0.06,2,2,0.85,0.591861916998823,1
10,9,0.06,2,2,0.85,0.722960167000565,1
10,10,0.06,1,1,0.692,0.905929249998735,1
10,11,0.06,2,2,0.764,0.532484833000126,1
10,12,0.06,2,2,0.812,0.609118250000392,1
10,13,0.06,2,2,0.815,0.576609499999904,1
10,14,0.06,1,1,0.678,0.744323082999472,1
10,15,0.06,2,2,0.684,0.668884832999538,1
10,16,0.06,2,2,0.699,0.672523084000204,1
10,17,0.06,2,2,0.715,0.594717959000263,1
10,18,0.06,1,1,0.707,0.693024832999072,1
10,19,0.06,2,2,0.9,0.567294832999323,1
10,20,0.06,1,2,0.857,0.652920584001549,0
10,21,0.06,2,2,0.753,0.507282624999789,1
10,22,0.06,2,2,0.701,0.911891666000884,1
10,23,0.06,2,2,0.7,0.581963874999929,1
10,24,0.06,2,1,0.909,0.766653792001307,0
10,25,0.06,2,2,0.935,0.594946666999022,1
10,26,0.06,1,2,0.912,0.575791958999616,0
10,27,0.06,1,2,0.755,0.551176832999772,0
10,28,0.06,1,1,0.7,0.647554375000254,1
10,29,0.06,2,2,0.836,0.469855207998989,1
10,30,0.06,1,1,0.75,1.92107729199961,1
11,1,0.08,1,1,0.501,2.78760579100344,1
11,2,0.08,2,2,0.608,1.33404762501596,1
11,3,0.08,2,2,0.755,1.02150862501003,1
11,4,0.08,1,2,0.516,3.76135862502269,0
11,5,0.08,1,2,0.513,1.46087808400625,0
11,6,0.08,2,1,0.508,1.38211412495002,0
11,7,0.08,2,2,0.598,1.30921304202639,1
11,8,0.08,2,2,0.597,0.968747709004674,1
11,9,0.08,1,2,0.597,0.912082333001308,0
11,10,0.08,2,2,0.597,0.796925082977396,1
11,11,0.08,2,2,0.696,1.29780300002312,1
11,12,0.08,1,1,0.601,1.34053795802174,1
11,13,0.08,1,2,0.601,1.90659858303843,0
11,14,0.08,2,2,0.595,0.916473458055407,1
11,15,0.08,1,1,0.628,1.31190862500807,1
11,16,0.08,1,1,0.615,0.812888125015888,1
11,17,0.08,1,1,0.615,0.867915916955099,1
11,18,0.08,1,1,0.615,0.904174208000768,1
11,19,0.08,1,1,0.615,0.885884125018492,1
11,20,0.08,1,1,0.615,1.06229591701413,1
11,21,0.08,1,1,0.615,1.05959179199999,1
11,22,0.08,2,2,0.635,1.35317483398831,1
11,23,0.08,2,2,0.924,1.54137379099848,1
11,24,0.08,1,2,1.019,1.33014337497298,0
11,25,0.08,1,1,0.661,2.10172341699945,1
11,26,0.08,1,1,0.591,2.16957374999765,1
11,27,0.08,2,1,0.625,1.03745687496848,0
11,28,0.08,1,2,0.631,2.18848174996674,0
11,29,0.08,1,2,0.604,1.83537470898591,0
11,30,0.08,2,2,0.6,0.846179832995404,1
11,1,0.08,1,2,0.661,1.85653954197187,0
11,2,0.08,2,2,0.607,1.34759216703242,1
11,3,0.08,1,1,0.657,1.50869270804105,1
11,4,0.08,1,1,0.637,0.853654041013215,1
11,5,0.08,1,2,0.613,1.07939908298431,0
11,6,0.08,2,2,0.567,1.59178108302876,1
11,7,0.08,2,1,0.624,1.43552729202202,0
11,8,0.08,2,2,0.651,1.03596879204269,1
11,9,0.08,2,2,0.65,0.907871416013222,1
11,10,0.08,1,1,0.568,2.96139354095794,1
11,11,0.08,2,2,0.561,1.32136612501927,1
11,12,0.08,2,2,0.561,1.32821316696936,1
11,13,0.08,2,2,0.9,1.84534587495727,1
11,14,0.08,2,2,0.995,1.7423824580037,1
11,15,0.08,1,2,1.013,1.68749087495962,0
11,16,0.08,1,2,0.602,1.13340641598916,0
11,17,0.08,1,1,0.614,1.35646729194559,1
11,18,0.08,2,2,0.616,1.18564179202076,1
11,19,0.08,2,2,0.605,1.31811175000621,1
11,20,0.08,1,1,1,2.28250333300093,1
11,21,0.08,1,1,1,1.47411424998427,1
11,22,0.08,1,2,0.602,1.55875245801872,0
11,23,0.08,1,1,0.99,1.65312641602941,1
11,24,0.08,1,1,0.991,1.30761612497736,1
11,25,0.08,2,2,0.646,1.25882587494561,1
11,26,0.08,1,1,0.625,1.20470649999334,1
11,27,0.08,1,1,0.633,1.12817995797377,1
11,28,0.08,1,1,0.633,0.807489166967571,1
11,29,0.08,1,1,0.869,1.14906374999555,1
11,30,0.08,2,2,1.01,1.45588662504451,1
11,1,0.08,1,2,0.707,3.37514374998864,0
11,2,0.08,2,2,0.65,0.809766541991848,1
11,3,0.08,2,2,0.952,1.69482124998467,1
11,4,0.08,2,2,0.929,1.22589337499812,1
11,5,0.08,1,2,0.831,1.810081292002,0
11,6,0.08,1,2,0.887,1.39798287500162,0
11,7,0.08,2,2,0.57,1.75261633301852,1
11,8,0.08,1,2,0.553,1.25254608300747,0
11,9,0.08,1,1,0.564,1.79005254199728,1
11,10,0.08,2,1,0.536,1.78793037502328,0
11,11,0.08,2,2,0.535,1.07910254201852,1
11,12,0.08,1,1,1,2.03149845800363,1
11,13,0.08,2,2,1.001,1.05144862498855,1
11,14,0.08,1,1,1,1.74241129204165,1
11,15,0.08,2,2,1.005,1.52515487495111,1
11,16,0.08,2,2,1,1.48679449997144,1
11,17,0.08,2,2,1.003,1.06127175001893,1
11,18,0.08,2,2,0.998,1.21427024999866,1
11,19,0.08,1,2,0.997,1.26124712504679,0
11,20,0.08,2,2,0.999,1.21096550003858,1
11,21,0.08,1,1,0.998,2.00086483400082,1
11,22,0.08,2,2,1.009,1.33193212497281,1
11,23,0.08,2,2,0.994,1.42342391598504,1
11,24,0.08,1,1,0.999,1.44017425004859,1
11,25,0.08,1,2,0.54,2.35547937499359,0
11,26,0.08,2,2,1.005,1.66825537499972,1
11,27,0.08,1,2,0.521,1.54871008294867,0
11,28,0.08,1,1,0.998,1.69068729196442,1
11,29,0.08,1,1,1,1.21241841599112,1
11,30,0.08,2,2,1,1.27885820897063,1
11,1,0.08,2,2,1.008,2.7220929589821,1
11,2,0.08,2,2,0.998,1.38077016599709,1
11,3,0.08,2,2,1.001,1.19716662500286,1
11,4,0.08,2,2,1.009,1.37046804098645,1
11,5,0.08,1,2,0.54,4.33309812500374,0
11,6,0.08,1,2,0.54,0.95470750000095,0
11,7,0.08,1,1,1,1.75887050002348,1
11,8,0.08,1,2,0.509,3.07018100004643,0
11,9,0.08,1,1,0.998,2.16894179099472,1
11,10,0.08,1,1,1,1.2540800840361,1
11,11,0.08,1,1,0.998,1.0264542500372,1
11,12,0.08,1,1,1,1.60527474997798,1
11,13,0.08,1,1,1,0.803217499982566,1
11,14,0.08,2,2,0.997,1.87961537501542,1
11,15,0.08,2,2,1.002,1.74110795895103,1
11,16,0.08,2,2,1.002,0.890560250030831,1
11,17,0.08,2,2,0.999,1.07942512503359,1
11,18,0.08,1,2,0.999,0.816510500037111,0
11,19,0.08,2,2,0.606,2.08644720900338,1
11,20,0.08,1,1,0.997,2.79447329096729,1
11,21,0.08,1,1,1,1.52357529202709,1
11,22,0.08,2,1,1,1.25884370796848,0
11,23,0.08,2,2,1.001,2.21527137496741,1
11,24,0.08,1,1,0.993,1.84062129101949,1
11,25,0.08,1,1,1,1.65111533395248,1
11,26,0.08,2,2,1.006,1.38844087498728,1
11,27,0.08,2,2,1.002,1.08521829196252,1
11,28,0.08,1,1,1,1.71871895901859,1
11,29,0.08,1,1,0.997,1.17219666595338,1
11,30,0.08,1,2,1.008,1.63424141600262,0
11,1,0.06,1,2,0.696,3.1624764999724,0
11,2,0.06,1,1,0.606,1.22385991702322,1
11,3,0.06,2,2,0.994,1.09415854199324,1
11,4,0.06,1,2,0.633,1.66213537502335,0
11,5,0.06,2,2,0.632,0.796830458974,1
11,6,0.06,2,2,0.632,0.952151582983788,1
11,7,0.06,2,2,0.761,0.988582207995933,1
11,8,0.06,2,2,0.868,1.13121483300347,1
11,9,0.06,2,2,1.007,1.27017491596052,1
11,10,0.06,2,2,1.007,1.23711045796517,1
11,11,0.06,2,2,1.008,1.30329366598744,1
11,12,0.06,2,2,1.003,1.45136070903391,1
11,13,0.06,2,2,1,1.2852469580248,1
11,14,0.06,1,2,0.517,2.1717501670355,0
11,15,0.06,2,2,0.531,1.35404004203156,1
11,16,0.06,1,2,0.686,1.04734425002243,0
11,17,0.06,2,2,0.621,1.00603400002001,1
11,18,0.06,1,2,0.621,0.766566834005062,0
11,19,0.06,2,2,0.621,0.753269166045357,1
11,20,0.06,2,2,0.621,0.782640541961882,1
11,21,0.06,1,2,0.838,1.07888950000051,0
11,22,0.06,2,2,0.535,0.999973500031047,1
11,23,0.06,2,2,1,1.44691054103896,1
11,24,0.06,1,1,0.531,2.71867558400845,1
11,25,0.06,1,2,0.594,1.0168641670025,0
11,26,0.06,2,2,0.568,0.963405332993716,1
11,27,0.06,2,2,0.555,1.00384012499126,1
11,28,0.06,2,2,0.583,0.903789791977033,1
11,29,0.06,2,2,0.583,0.679422874993179,1
11,30,0.06,1,1,0.662,1.92576858296525,1
11,1,0.06,1,2,0.509,2.74753212498035,0
11,2,0.06,1,2,0.533,1.20321024995064,0
11,3,0.06,2,2,0.625,0.941848249989562,1
11,4,0.06,1,1,0.62,1.95909775001928,1
11,5,0.06,2,2,0.644,1.17955716600409,1
11,6,0.06,2,2,0.684,0.899928459024522,1
11,7,0.06,2,2,0.671,0.71805454097921,1
11,8,0.06,2,2,0.671,0.726603625051212,1
11,9,0.06,2,2,0.906,1.12046387500595,1
11,10,0.06,1,1,0.686,1.36529249994783,1
11,11,0.06,2,2,0.787,1.25505462498404,1
11,12,0.06,2,2,0.814,0.982374707993586,1
11,13,0.06,2,2,0.809,1.15252741699805,1
11,14,0.06,1,2,1.004,1.68393608299084,0
11,15,0.06,1,2,0.748,1.05205266596749,0
11,16,0.06,1,1,0.637,1.03239995904732,1
11,17,0.06,2,2,0.651,1.25435183400987,1
11,18,0.06,2,2,0.649,0.702435916988179,1
11,19,0.06,2,2,0.649,0.742468708020169,1
11,20,0.06,1,2,0.649,0.631982167018577,0
11,21,0.06,1,2,0.649,0.711251125030685,0
11,22,0.06,1,2,0.648,0.852123375050724,0
11,23,0.06,1,2,0.54,1.32508487498853,0
11,24,0.06,1,1,0.534,1.90466229198501,1
11,25,0.06,1,2,0.521,2.61392770899693,0
11,26,0.06,2,2,0.523,0.822699499956798,1
11,27,0.06,1,2,0.58,1.55156845902093,0
11,28,0.06,2,2,0.55,1.42217666597571,1
11,29,0.06,1,1,0.562,1.1815905830008,1
11,30,0.06,2,2,0.586,0.859550957975443,1
11,1,0.06,1,2,0.63,1.24491666600807,0
11,2,0.06,2,2,0.594,1.02275491697947,1
11,3,0.06,1,1,0.607,1.1294822919881,1
11,4,0.06,1,1,0.604,0.772281333978754,1
11,5,0.06,1,2,0.589,1.09180595801445,0
11,6,0.06,2,1,0.644,0.958152417035308,0
11,7,0.06,2,2,0.607,0.83254695800133,1
11,8,0.06,2,2,0.607,0.742171291029081,1
11,9,0.06,1,1,0.6,1.78436899994267,1
11,10,0.06,2,2,0.6,1.69286666600965,1
11,11,0.06,2,2,0.599,0.855273291992489,1
11,12,0.06,1,1,0.722,1.57495004200609,1
11,13,0.06,1,2,0.803,1.11873550002929,0
11,14,0.06,1,2,0.712,1.03762466699118,0
11,15,0.06,2,2,0.704,0.606002208020072,1
11,16,0.06,2,1,0.738,1.52476204099366,0
11,17,0.06,2,1,0.579,1.5898657499929,0
11,18,0.06,2,2,0.599,0.901192333025392,1
11,19,0.06,2,2,0.599,0.847730666981079,1
11,20,0.06,2,2,0.599,1.01625729195075,1
11,21,0.06,2,2,0.599,1.19924137502676,1
11,22,0.06,1,2,0.599,0.914717125007883,0
11,23,0.06,1,2,0.599,1.9040017920197,0
11,24,0.06,1,1,0.612,1.86444420804037,1
11,25,0.06,1,2,0.602,1.5799431669875,0
11,26,0.06,1,2,0.594,2.29990395798814,0
11,27,0.06,1,1,0.618,3.68252337502781,1
11,28,0.06,1,1,0.606,0.684120416000951,1
11,29,0.06,2,2,0.632,1.11688258399954,1
11,30,0.06,1,2,0.601,0.93266475002747,0
11,1,0.06,2,2,0.697,2.17056483397027,1
11,2,0.06,1,2,0.694,1.1484094170155,0
11,3,0.06,1,2,0.707,1.28243333299179,0
11,4,0.06,2,2,0.73,2.96189537498867,1
11,5,0.06,1,2,0.69,3.34780412499094,0
11,6,0.06,2,2,0.62,1.22604162496282,1
11,7,0.06,2,2,0.62,0.808686791977379,1
11,8,0.06,2,2,0.62,0.941590791975614,1
11,9,0.06,1,1,0.7,1.15097625000635,1
11,10,0.06,2,2,0.702,8.72610162495403,1
11,11,0.06,2,2,0.764,1.21638316701865,1
11,12,0.06,1,1,0.709,1.1840440829983,1
11,13,0.06,1,2,0.745,1.0620919590001,0
11,14,0.06,2,2,0.745,0.66329225001391,1
11,15,0.06,1,1,0.694,1.05362466600491,1
11,16,0.06,2,2,0.993,2.03056174999801,1
11,17,0.06,2,1,0.998,2.18111420801142,0
11,18,0.06,2,2,1.002,2.10277162503917,1
11,19,0.06,1,2,0.973,3.11682895803824,0
11,20,0.06,1,2,1.006,1.6435930840089,0
11,21,0.06,1,2,0.857,1.03933712502476,0
11,22,0.06,1,1,0.77,0.966876542021055,1
11,23,0.06,1,1,0.666,1.02910337503999,1
11,24,0.06,2,2,0.717,0.938543541007675,1
11,25,0.06,1,1,0.652,1.04393495799741,1
11,26,0.06,1,2,0.661,0.99818887503352,0
11,27,0.06,2,2,0.661,0.581023874983657,1
11,28,0.06,2,2,0.66,0.656553125008941,1
11,29,0.06,1,1,0.677,1.31118812499335,1
11,30,0.06,1,1,0.736,0.883151917019859,1
11,1,0.045,2,2,0.756,1.32298524997896,1
11,2,0.045,1,2,0.677,0.802611624996644,0
11,3,0.045,1,2,0.677,0.54269904200919,0
11,4,0.045,2,2,0.677,0.55065987497801,1
11,5,0.045,1,2,0.702,1.43557500001043,0
11,6,0.045,1,1,0.703,1.00697995902738,1
11,7,0.045,2,2,0.654,0.669704709027428,1
11,8,0.045,2,2,0.654,0.685775334015489,1
11,9,0.045,1,2,0.654,1.12679466704139,0
11,10,0.045,2,2,0.654,0.645619250019081,1
11,11,0.045,2,2,0.654,0.865335458016489,1
11,12,0.045,2,2,0.654,0.648244042007718,1
11,13,0.045,1,1,0.733,1.39963125000941,1
11,14,0.045,1,2,0.628,0.817286708042957,0
11,15,0.045,2,2,0.625,0.612718166026752,1
11,16,0.045,2,2,0.624,1.80469220801024,1
11,17,0.045,2,2,0.661,0.907956291979644,1
11,18,0.045,1,1,0.995,2.69521566701587,1
11,19,0.045,2,2,0.994,1.81805787497433,1
11,20,0.045,1,2,1.001,1.2189797500032,0
11,21,0.045,1,1,0.678,1.5255059999763,1
11,22,0.045,1,2,0.613,1.78434575005667,0
11,23,0.045,1,1,0.621,1.30870466696797,1
11,24,0.045,1,1,0.673,0.81300545798149,1
11,25,0.045,1,2,0.648,1.10500029200921,0
11,26,0.045,2,2,0.597,0.862495000008494,1
11,27,0.045,2,2,0.606,0.967996291001327,1
11,28,0.045,1,2,0.715,1.43942091701319,0
11,29,0.045,2,1,0.584,1.01899974996923,0
11,30,0.045,1,1,0.575,0.575462957960553,1
11,1,0.045,2,2,0.689,1.95035933295731,1
11,2,0.045,2,1,0.596,1.00710250000702,0
11,3,0.045,1,1,0.598,1.85394804197131,1
11,4,0.045,2,2,0.638,1.06611762504326,1
11,5,0.045,1,2,0.703,0.788973541988526,0
11,6,0.045,1,2,0.702,0.719358791946433,0
11,7,0.045,2,2,0.701,0.639536166971084,1
11,8,0.045,1,2,0.699,0.749179709004238,0
11,9,0.045,2,2,0.513,0.943654165952466,1
11,10,0.045,2,2,0.851,1.70229958300479,1
11,11,0.045,1,2,1.001,1.29213220800739,0
11,12,0.045,2,2,0.999,1.11791520798579,1
11,13,0.045,2,2,0.794,1.15107008401537,1
11,14,0.045,2,2,0.794,0.747749582980759,1
11,15,0.045,1,2,0.795,0.656303666997701,0
11,16,0.045,2,2,0.793,0.662591041997075,1
11,17,0.045,1,2,0.792,0.644102292018943,0
11,18,0.045,1,1,0.639,1.1029528749641,1
11,19,0.045,2,1,0.633,0.733268083014991,0
11,20,0.045,2,2,0.758,1.18372325005475,1
11,21,0.045,1,2,0.808,0.991287166951224,0
11,22,0.045,2,2,0.774,0.744722667033784,1
11,23,0.045,2,2,0.719,0.841401458950713,1
11,24,0.045,2,2,0.718,0.854208291973919,1
11,25,0.045,1,2,0.857,0.905072459019721,0
11,26,0.045,1,1,0.73,1.25297158397734,1
11,27,0.045,2,1,0.728,0.590646042022854,0
11,28,0.045,1,2,0.548,1.31953958299709,0
11,29,0.045,2,2,0.589,0.787520667014178,1
11,30,0.045,2,2,0.62,0.839214125007857,1
11,1,0.045,1,1,0.632,2.21762970800046,1
11,2,0.045,1,1,0.616,1.11801216599997,1
11,3,0.045,2,1,0.619,0.951325208006892,0
11,4,0.045,1,1,0.615,0.65515508298995,1
11,5,0.045,1,1,0.614,0.697311249969061,1
11,6,0.045,2,1,0.614,0.748871166957542,0
11,7,0.045,1,1,0.599,1.09476120903855,1
11,8,0.045,1,2,0.654,0.664426250034012,0
11,9,0.045,1,2,0.693,66.9802467499976,0
11,10,0.045,1,2,0.51,1.05993287503952,0
11,11,0.045,2,2,0.556,1.02358437498333,1
11,12,0.045,1,2,0.563,1.11552562500583,0
11,13,0.045,1,1,0.583,1.00635145796696,1
11,14,0.045,2,1,0.952,1.1909208750003,0
11,15,0.045,1,2,1.004,1.43843387498055,0
11,16,0.045,2,2,0.588,1.84398545796284,1
11,17,0.045,2,1,1,1.60530895896954,0
11,18,0.045,2,2,1.005,1.3969700000016,1
11,19,0.045,1,1,0.717,1.04081816697726,1
11,20,0.045,1,1,0.725,1.12665537500288,1
11,21,0.045,2,2,0.881,1.33237095904769,1
11,22,0.045,1,1,0.772,1.21102049999172,1
11,23,0.045,1,2,0.775,1.01640087499982,0
11,24,0.045,1,2,0.757,0.960042791964952,0
11,25,0.045,2,1,0.726,1.0065689579933,0
11,26,0.045,1,1,0.538,1.88894245802658,1
11,27,0.045,2,1,0.537,0.80482962494716,0
11,28,0.045,2,2,0.56,0.952903249999508,1
11,29,0.045,2,2,0.555,0.782949333020952,1
11,30,0.045,1,2,0.552,1.22204933402827,0
11,1,0.045,2,1,0.591,2.0459913329687,0
11,2,0.045,1,1,0.538,0.979660166020039,1
11,3,0.045,2,2,0.521,0.895819416036829,1
11,4,0.045,2,1,0.57,1.25652037502732,0
11,5,0.045,2,1,0.541,1.23407616699114,0
11,6,0.045,1,2,0.519,0.767296499980148,0
11,7,0.045,1,2,0.539,0.911306749971118,0
11,8,0.045,2,2,0.565,0.83854791696649,1
11,9,0.045,1,1,0.547,0.872258833027445,1
11,10,0.045,2,2,0.556,0.934257917047944,1
11,11,0.045,1,2,0.569,0.796287250006571,0
11,12,0.045,1,1,0.548,0.733842417015694,1
11,13,0.045,1,2,0.546,1.02397137501976,0
11,14,0.045,2,2,0.539,1.11257304198807,1
11,15,0.045,2,1,0.536,1.07676112500485,0
11,16,0.045,1,1,0.534,0.598011791997124,1
11,17,0.045,1,1,0.534,0.743719374993816,1
11,18,0.045,2,1,0.534,0.654527791019063,0
11,19,0.045,2,1,0.523,0.987472833017819,0
11,20,0.045,1,2,0.556,0.716473083011806,0
11,21,0.045,2,2,0.549,0.680129917047452,1
11,22,0.045,1,1,0.56,0.711707124952227,1
11,23,0.045,2,1,0.533,0.63398095802404,0
11,24,0.045,1,1,0.58,1.38395333301742,1
11,25,0.045,2,1,0.57,1.01917395804776,0
11,26,0.045,1,1,0.533,1.03755312500289,1
11,27,0.045,1,1,0.528,0.639221790945157,1
11,28,0.045,2,2,0.616,1.15013362502214,1
11,29,0.045,1,1,0.6,1.62831437500427,1
11,30,0.045,1,1,0.611,1.23970604100032,1
11,1,0.08,1,2,0.573,2.02895900001749,0
11,2,0.08,1,2,0.608,1.05870529200183,0
11,3,0.08,1,1,0.659,1.05557566700736,1
11,4,0.08,2,2,0.518,42.5670324579696,1
11,5,0.08,1,2,0.713,1.76302516600117,0
11,6,0.08,1,1,0.655,0.828926208021585,1
11,7,0.08,1,1,0.618,0.807760750001762,1
11,8,0.08,1,1,0.637,0.941602499980945,1
11,9,0.08,2,2,0.997,1.13332479202654,1
11,10,0.08,1,1,1,1.79808795801364,1
11,11,0.08,2,2,1,1.307717083022,1
11,12,0.08,2,2,1.004,1.1544712500181,1
11,13,0.08,1,2,1.002,0.816069166990928,0
11,14,0.08,2,2,1.002,0.696555917034857,1
11,15,0.08,1,1,1,1.91230254201218,1
11,16,0.08,1,1,0.994,1.19387204200029,1
11,17,0.08,2,2,0.795,1.91487362497719,1
11,18,0.08,2,2,0.812,1.14678533404367,1
11,19,0.08,1,1,0.999,1.82123220799258,1
11,20,0.08,1,1,0.998,1.39259029098321,1
11,21,0.08,1,2,1.011,1.59890733304201,0
11,22,0.08,2,2,0.994,1.58762208296685,1
11,23,0.08,1,1,1,1.42744945798768,1
11,24,0.08,1,2,0.616,1.31706812500488,0
11,25,0.08,2,2,0.607,0.692388749972451,1
11,26,0.08,1,1,0.823,1.03826266695978,1
11,27,0.08,2,2,0.565,1.12604041601298,1
11,28,0.08,1,1,1,1.62251804105472,1
11,29,0.08,2,2,1.001,1.20415679196594,1
11,30,0.08,1,1,0.993,1.68272179097403,1
11,1,0.08,2,2,0.617,25.3647290840163,1
11,2,0.08,1,2,0.847,1.13916070800042,0
11,3,0.08,2,2,0.606,0.852635583025403,1
11,4,0.08,2,2,0.602,1.03941533400211,1
11,5,0.08,1,1,0.661,1.10885295900516,1
11,6,0.08,1,1,0.658,1.00024220795603,1
11,7,0.08,2,2,0.628,0.918296750052832,1
11,8,0.08,1,1,0.643,0.7893664999865,1
11,9,0.08,2,2,0.601,0.911938707984518,1
11,10,0.08,2,2,0.602,0.640588249952998,1
11,11,0.08,2,2,0.602,0.695053457980976,1
11,12,0.08,2,2,0.67,1.14275979204103,1
11,13,0.08,2,2,0.67,0.717767958005425,1
11,14,0.08,1,1,1,1.54467937495792,1
11,15,0.08,1,1,1,0.960927209001966,1
11,16,0.08,2,2,1.005,1.26968883298105,1
11,17,0.08,2,2,0.995,1.02276679198258,1
11,18,0.08,1,1,1,1.1919950839947,1
11,19,0.08,1,1,1,1.10281987499911,1
11,20,0.08,1,1,1,0.90180558298016,1
11,21,0.08,1,2,1.003,1.33589020802174,0
11,22,0.08,2,2,1,1.32328804099234,1
11,23,0.08,2,2,1.01,1.03713412501384,1
11,24,0.08,1,1,1,1.11098162503913,1
11,25,0.08,2,2,0.997,1.33994833304314,1
11,26,0.08,1,1,1,0.966103749989998,1
11,27,0.08,2,2,0.994,2.15809887496289,1
11,28,0.08,2,2,0.993,0.849873874976765,1
11,29,0.08,1,1,1,1.24814237497048,1
11,30,0.08,2,2,0.588,1.4068413330242,1
11,1,0.08,2,2,0.631,1.18618012499064,1
11,2,0.08,2,2,0.631,0.547346749983262,1
11,3,0.08,1,2,0.633,0.805860624997877,0
11,4,0.08,1,1,0.784,1.63935908296844,1
11,5,0.08,2,1,0.697,0.949972999980673,0
11,6,0.08,1,1,0.635,0.695054374984466,1
11,7,0.08,2,2,0.71,0.903834290977102,1
11,8,0.08,2,2,0.707,0.689181375026237,1
11,9,0.08,2,2,0.707,0.869053125032224,1
11,10,0.08,1,1,0.848,0.940851499966811,1
11,11,0.08,1,1,0.692,0.564463957969565,1
11,12,0.08,1,2,0.622,1.02443779195892,0
11,13,0.08,1,1,0.75,0.849370167008601,1
11,14,0.08,2,1,0.702,0.680630624992773,0
11,15,0.08,1,2,0.636,0.823235500021838,0
11,16,0.08,1,1,1,0.91145937499823,1
11,17,0.08,2,2,1.005,1.4308996249456,1
11,18,0.08,2,2,1.009,0.82088641601149,1
11,19,0.08,1,1,1,1.24781450000592,1
11,20,0.08,2,1,1,0.855813542031683,0
11,21,0.08,1,1,0.928,0.73468995897565,1
11,22,0.08,2,1,0.996,1.08338266698411,0
11,23,0.08,1,1,0.996,0.726491832989268,1
11,24,0.08,2,2,1.002,1.49421483400511,1
11,25,0.08,1,1,1,1.40522766701179,1
11,26,0.08,2,2,0.53,2.47720554098487,1
11,27,0.08,1,1,1,1.14706962497439,1
11,28,0.08,1,1,1,0.887562250019982,1
11,29,0.08,1,1,1,0.725382792006712,1
11,30,0.08,2,1,0.533,2.13528758398024,0
11,1,0.08,1,1,0.796,1.24680399999488,1
11,2,0.08,1,1,0.817,0.70228904200485,1
11,3,0.08,2,2,0.782,0.88543700001901,1
11,4,0.08,1,2,0.693,0.733458041970152,0
11,5,0.08,1,1,0.639,0.656306459044572,1
11,6,0.08,1,1,0.639,0.487038374994881,1
11,7,0.08,1,1,0.639,0.422976374975406,1
11,8,0.08,2,2,0.664,0.827750790980645,1
11,9,0.08,1,1,0.615,0.697203374991659,1
11,10,0.08,1,1,0.615,0.511946249986067,1
11,11,0.08,2,2,0.56,0.732158042024821,1
11,12,0.08,2,1,0.625,0.645459791994654,0
11,13,0.08,2,2,0.573,0.71037524996791,1
11,14,0.08,2,2,0.667,0.792067709029652,1
11,15,0.08,2,2,0.918,0.67924720805604,1
11,16,0.08,2,2,0.92,0.820629875001032,1
11,17,0.08,1,1,1,1.43974170798901,1
11,18,0.08,1,1,1,0.864980624988675,1
11,19,0.08,2,2,1.024,1.28828604199225,1
11,20,0.08,1,1,0.523,1.86187529197196,1
11,21,0.08,2,1,0.54,0.745428209018428,0
11,22,0.08,1,2,0.546,1.22393279202515,0
11,23,0.08,2,1,0.571,0.874192624993157,0
11,24,0.08,2,1,0.566,0.713136791018769,0
11,25,0.08,1,1,0.566,0.645467624999583,1
11,26,0.08,1,1,0.566,1.01543437503278,1
11,27,0.08,1,1,0.58,0.973932124965359,1
11,28,0.08,1,1,0.58,0.608017708000261,1
11,29,0.08,1,2,0.576,0.852638082986232,0
11,30,0.08,2,2,0.558,0.789650124963373,1
11,1,0.045,1,1,0.685,1.2498795419815,1
11,2,0.045,2,2,0.637,0.83600504102651,1
11,3,0.045,1,2,0.658,0.690844084019773,0
11,4,0.045,1,1,0.54,0.575703000009526,1
11,5,0.045,2,1,0.541,0.712903166946489,0
11,6,0.045,2,1,0.541,0.579595874994993,0
11,7,0.045,2,2,0.556,0.869448875018861,1
11,8,0.045,2,2,0.554,0.702987458033022,1
11,9,0.045,1,1,0.542,0.644761708041187,1
11,10,0.045,2,1,0.542,0.558519874990452,0
11,11,0.045,1,2,0.538,0.663292000012007,0
11,12,0.045,1,1,0.538,0.588243125006557,1
11,13,0.045,1,1,0.539,0.689040415978525,1
11,14,0.045,2,2,1.004,1.43113862501923,1
11,15,0.045,1,1,1,1.4913998330012,1
11,16,0.045,1,1,0.715,0.873239791020751,1
11,17,0.045,2,1,0.611,0.781382042041514,0
11,18,0.045,2,1,0.538,0.865229541959707,0
11,19,0.045,1,1,0.551,0.764636666048318,1
11,20,0.045,1,1,0.591,0.796462166006677,1
11,21,0.045,1,1,0.557,0.703532708983403,1
11,22,0.045,2,1,0.595,0.789603582990821,0
11,23,0.045,2,2,0.62,0.695450707979035,1
11,24,0.045,1,1,0.579,0.623833124991506,1
11,25,0.045,2,1,0.593,0.720596125000156,0
11,26,0.045,1,2,0.7,0.772761792002711,0
11,27,0.045,2,1,0.63,0.813886917021591,0
11,28,0.045,1,1,0.606,0.55930270900717,1
11,29,0.045,2,2,0.566,0.965566291008145,1
11,30,0.045,1,1,0.545,0.678243791975547,1
11,1,0.045,1,2,0.624,1.1412346669822,0
11,2,0.045,2,2,0.58,0.563996957964264,1
11,3,0.045,2,1,0.627,0.718631082971115,0
11,4,0.045,1,1,0.557,0.51075562502956,1
11,5,0.045,1,1,0.557,0.496897790988442,1
11,6,0.045,2,2,0.581,0.78357374999905,1
11,7,0.045,1,2,0.567,1.05530800000997,0
11,8,0.045,1,1,0.567,0.628761416999623,1
11,9,0.045,2,2,0.565,0.855955792008899,1
11,10,0.045,1,1,0.56,0.646731415996328,1
11,11,0.045,1,1,0.56,0.646616332989652,1
11,12,0.045,1,2,0.568,0.926994375011418,0
11,13,0.045,1,1,0.581,0.718838375003543,1
11,14,0.045,2,2,0.574,0.775843999988865,1
11,15,0.045,1,1,0.567,0.992854040989187,1
11,16,0.045,1,1,0.567,0.649174874997698,1
11,17,0.045,2,1,0.567,0.808023374993354,0
11,18,0.045,2,1,0.567,0.623750875005499,0
11,19,0.045,2,2,0.59,0.741750916000456,1
11,20,0.045,1,2,0.602,0.782929750042967,0
11,21,0.045,1,1,0.671,0.628897332993802,1
11,22,0.045,1,1,0.699,0.587768415978644,1
11,23,0.045,1,2,0.637,1.07762729201932,0
11,24,0.045,1,1,0.616,0.838563249970321,1
11,25,0.045,1,1,0.616,0.506393083021976,1
11,26,0.045,1,1,0.616,0.724084665998816,1
11,27,0.045,2,1,0.616,0.568127417005599,0
11,28,0.045,1,1,0.596,0.770034166052938,1
11,29,0.045,1,1,0.596,0.671729707974009,1
11,30,0.045,1,2,0.64,0.89275075000478,0
11,1,0.045,2,1,0.57,8.64542791695567,0
11,2,0.045,1,1,0.547,0.874290375038981,1
11,3,0.045,1,1,0.591,0.872012374980841,1
11,4,0.045,1,1,0.624,0.646724041958805,1
11,5,0.045,1,1,0.621,0.697135374997742,1
11,6,0.045,1,1,0.601,0.941033666953444,1
11,7,0.045,1,1,0.598,0.592460292042233,1
11,8,0.045,1,1,0.598,0.664959917019587,1
11,9,0.045,1,2,0.673,0.957805583020672,0
11,10,0.045,2,2,0.561,0.837176957982592,1
11,11,0.045,2,1,0.596,0.774642500036862,0
11,12,0.045,2,1,0.587,0.596409916004632,0
11,13,0.045,1,1,0.554,0.93415325001115,1
11,14,0.045,2,1,0.578,0.875538208987564,0
11,15,0.045,1,2,0.563,0.785568416002207,0
11,16,0.045,2,2,0.563,0.519641833030619,1
11,17,0.045,2,2,0.589,0.645740457985085,1
11,18,0.045,1,1,0.652,0.895316333975643,1
11,19,0.045,2,2,0.642,0.868327500007581,1
11,20,0.045,2,2,0.695,0.863885207974818,1
11,21,0.045,1,2,0.712,0.967030291969422,0
11,22,0.045,2,1,0.595,0.999778209021315,0
11,23,0.045,1,2,0.623,0.711865541990846,0
11,24,0.045,1,1,0.645,0.797972333966754,1
11,25,0.045,1,1,0.642,0.756790500017814,1
11,26,0.045,1,1,0.642,0.639792125031818,1
11,27,0.045,2,1,0.66,1.23125220899237,0
11,28,0.045,2,2,0.683,0.716634124983102,1
11,29,0.045,2,2,0.683,0.862403957988136,1
11,30,0.045,1,2,0.683,0.606621165992692,0
11,1,0.045,2,1,0.597,1.18908566603204,0
11,2,0.045,2,2,0.673,0.703058834013063,1
11,3,0.045,2,1,0.578,1.06110054097371,0
11,4,0.045,1,1,0.53,0.757183749985415,1
11,5,0.045,2,2,0.671,0.726829500054009,1
11,6,0.045,1,1,0.691,0.859364125004504,1
11,7,0.045,2,2,0.648,0.946311874955427,1
11,8,0.045,1,1,0.62,0.80640483397292,1
11,9,0.045,2,1,0.608,0.557384041021578,0
11,10,0.045,1,1,0.669,0.775836125016212,1
11,11,0.045,1,1,0.659,0.550347832962871,1
11,12,0.045,2,1,0.646,1.0645588330226,0
11,13,0.045,1,1,0.691,1.41186329204356,1
11,14,0.045,2,1,0.596,7.67774645797908,0
11,15,0.045,2,1,0.596,0.533646917028818,0
11,16,0.045,2,1,0.602,0.830442667007446,0
11,17,0.045,1,1,0.538,0.709847791993525,1
11,18,0.045,2,1,0.572,0.895044292032253,0
11,19,0.045,2,1,0.557,0.686388790956698,0
11,20,0.045,1,1,0.636,0.765987874998245,1
11,21,0.045,2,2,0.735,0.972518499998841,1
11,22,0.045,1,2,0.698,0.598829708993435,0
11,23,0.045,1,2,0.596,0.990037916984875,0
11,24,0.045,1,1,0.654,0.64509333303431,1
11,25,0.045,1,1,0.645,0.669272125000134,1
11,26,0.045,2,1,0.644,0.551411458000075,0
11,27,0.045,1,2,0.667,0.982118291954976,0
11,28,0.045,2,2,0.626,0.630124749965034,1
11,29,0.045,2,2,0.626,1.00020108296303,1
11,30,0.045,1,2,0.626,0.894583416986279,0
11,1,0.06,1,1,0.677,1.0221232920303,1
11,2,0.06,2,2,0.64,0.878414209000766,1
11,3,0.06,1,1,0.565,0.685939291957766,1
11,4,0.06,2,2,0.616,0.6288951250026,1
11,5,0.06,1,1,0.635,0.56881191697903,1
11,6,0.06,1,1,0.566,0.637846541998442,1
11,7,0.06,1,1,0.566,0.510021499998402,1
11,8,0.06,1,2,0.717,0.814478249987587,0
11,9,0.06,1,1,0.619,0.789643416996114,1
11,10,0.06,1,1,0.618,0.640189958037809,1
11,11,0.06,1,2,0.594,0.806056375033222,0
11,12,0.06,2,2,0.594,0.776589874993078,1
11,13,0.06,1,1,0.722,0.750832958030514,1
11,14,0.06,2,2,0.738,0.70410550001543,1
11,15,0.06,1,1,0.923,0.836713208002038,1
11,16,0.06,2,2,1.13,1.98589191696374,1
11,17,0.06,2,2,1.133,0.851239292009268,1
11,18,0.06,1,2,1.133,0.783496666001156,0
11,19,0.06,1,1,1,1.00693779200083,1
11,20,0.06,2,1,1,0.711041125003248,0
11,21,0.06,1,1,0.911,0.503547416010406,1
11,22,0.06,2,1,0.911,0.5438824169687,0
11,23,0.06,1,1,0.911,0.574352208001073,1
11,24,0.06,2,2,0.621,1.28687266696943,1
11,25,0.06,2,2,0.725,0.724748458014801,1
11,26,0.06,1,1,0.651,0.703081250016112,1
11,27,0.06,2,2,0.648,0.892848875024356,1
11,28,0.06,2,1,0.774,0.87911516695749,0
11,29,0.06,1,1,0.731,0.500556625018362,1
11,30,0.06,1,1,0.731,0.637236207956448,1
11,1,0.06,1,1,0.739,1.84449145902181,1
11,2,0.06,2,2,0.728,0.950726792041678,1
11,3,0.06,2,2,0.719,11.0110972910188,1
11,4,0.06,2,1,0.838,1.48127483297139,0
11,5,0.06,1,1,0.546,0.828716874995735,1
11,6,0.06,2,2,0.547,1.52859954105224,1
11,7,0.06,1,2,0.543,0.708633833040949,0
11,8,0.06,1,1,0.551,1.0152208749787,1
11,9,0.06,2,2,0.55,0.758737458032556,1
11,10,0.06,1,2,0.804,0.708673458022531,0
11,11,0.06,1,1,0.723,0.695825916016474,1
11,12,0.06,2,2,0.848,0.780111416999716,1
11,13,0.06,2,1,0.81,0.684667084016837,0
11,14,0.06,2,2,0.669,0.724816207948606,1
11,15,0.06,1,1,0.765,1.17459670902463,1
11,16,0.06,2,1,0.51,0.492826750036329,0
11,17,0.06,1,2,0.822,0.83029620803427,0
11,18,0.06,2,1,0.998,0.640935666975565,0
11,19,0.06,2,1,0.683,0.646278667030856,0
11,20,0.06,1,2,0.7,0.643366875010543,0
11,21,0.06,2,2,0.667,0.637386624992359,1
11,22,0.06,2,1,0.724,0.970044167013839,0
11,23,0.06,1,1,0.563,0.885419042024296,1
11,24,0.06,1,2,0.682,0.710524124966469,0
11,25,0.06,1,1,0.591,0.670931125001516,1
11,26,0.06,2,2,0.596,0.729264708003029,1
11,27,0.06,1,2,0.596,0.716555874969345,0
11,28,0.06,1,2,0.6,0.649545583000872,0
11,29,0.06,1,1,0.706,0.575768875016365,1
11,30,0.06,1,1,0.717,0.670372207998298,1
11,1,0.06,1,1,0.591,0.986569291970227,1
11,2,0.06,1,2,0.713,0.90403812500881,0
11,3,0.06,2,1,0.598,0.968055957986508,0
11,4,0.06,1,1,0.6,0.48796008399222,1
11,5,0.06,1,2,0.64,0.951933583011851,0
11,6,0.06,1,1,0.769,0.653847499983385,1
11,7,0.06,2,2,0.691,0.763414625020232,1
11,8,0.06,1,1,0.727,0.7679527499713,1
11,9,0.06,2,2,0.843,0.808329084014986,1
11,10,0.06,1,2,0.843,0.791401833004784,0
11,11,0.06,2,2,0.843,0.550443084037397,1
11,12,0.06,2,2,0.843,0.557906624977477,1
11,13,0.06,2,1,0.847,0.950546791020315,0
11,14,0.06,1,2,0.832,0.72764699999243,0
11,15,0.06,1,2,0.675,0.925111457996536,0
11,16,0.06,2,2,0.645,0.534797624975909,1
11,17,0.06,2,1,0.7,0.887611124955583,0
11,18,0.06,1,2,0.644,0.802876208967064,0
11,19,0.06,2,2,0.644,0.491155124967918,1
11,20,0.06,2,1,0.706,0.789772624964826,0
11,21,0.06,1,2,0.908,0.790582665998954,0
11,22,0.06,2,2,0.816,0.67218595801387,1
11,23,0.06,1,2,0.817,0.555756749992725,0
11,24,0.06,1,2,0.791,0.599238792026881,0
11,25,0.06,2,2,0.633,1.05910295801004,1
11,26,0.06,1,1,0.772,0.763322040962521,1
11,27,0.06,2,1,0.754,0.534278000006452,0
11,28,0.06,2,1,0.571,0.945018250029534,0
11,29,0.06,2,2,0.716,0.877981249999721,1
11,30,0.06,1,2,0.714,2.87936204200378,0
11,1,0.06,2,1,0.55,4.75149316596799,0
11,2,0.06,2,2,0.742,0.899706957978196,1
11,3,0.06,2,2,0.629,1.20217437500833,1
11,4,0.06,2,1,0.673,0.679563375015277,0
11,5,0.06,2,1,0.626,0.598983707954176,0
11,6,0.06,2,1,0.638,0.616189958003815,0
11,7,0.06,1,2,0.686,0.566276666009799,0
11,8,0.06,1,1,0.62,0.651746875024401,1
11,9,0.06,1,1,0.595,0.551049207977485,1
11,10,0.06,2,2,0.75,0.965127957984805,1
11,11,0.06,1,2,0.644,23.4690812079934,0
11,12,0.06,2,2,0.641,0.866536416986492,1
11,13,0.06,2,1,0.631,0.886120500043035,0
11,14,0.06,2,2,0.69,0.655561375024263,1
11,15,0.06,2,2,0.685,0.708592124981806,1
11,16,0.06,2,2,0.683,0.747200125013478,1
11,17,0.06,2,2,0.683,0.757504416978918,1
11,18,0.06,2,1,0.727,7.39450529200258,0
11,19,0.06,2,1,0.727,20.8742630409542,0
11,20,0.06,2,2,0.704,1.08906049997313,1
11,21,0.06,2,2,0.69,4.58161620801548,1
11,22,0.06,2,2,0.69,0.697236082982272,1
11,23,0.06,1,2,0.667,6.37600887502776,0
11,24,0.06,2,2,0.592,1.47217795799952,1
11,25,0.06,2,2,0.502,9.49884850002127,1
11,26,0.06,1,1,0.569,1.12991587503348,1
11,27,0.06,2,2,0.643,0.949230458005331,1
11,28,0.06,2,2,0.63,0.496439958980773,1
11,29,0.06,1,2,0.63,0.592064875003416,0
11,30,0.06,2,2,0.63,0.534415790985804,1
12,1,0.06,1,1,0.643,1.40796458302066,1
12,2,0.06,2,2,0.674,1.20909008290619,1
12,3,0.06,1,1,0.67,1.25761162489653,1
12,4,0.06,1,2,0.594,1.02651304192841,0
12,5,0.06,2,2,0.512,1.05452295811847,1
12,6,0.06,2,1,0.653,1.21022366709076,0
12,7,0.06,1,1,0.574,0.824741542106494,1
12,8,0.06,2,2,0.708,1.43774691689759,1
12,9,0.06,2,2,0.609,1.03210233384743,1
12,10,0.06,1,1,0.671,1.45860374998301,1
12,11,0.06,2,1,0.687,0.857206082902849,0
12,12,0.06,2,2,0.63,1.05915066692978,1
12,13,0.06,2,2,0.561,1.19579604198225,1
12,14,0.06,2,1,0.501,1.54558974993415,0
12,15,0.06,1,1,0.603,0.969803832937032,1
12,16,0.06,2,2,0.606,0.971979582915083,1
12,17,0.06,1,2,0.61,0.81794674997218,0
12,18,0.06,2,1,0.571,0.980961249908432,0
12,19,0.06,1,1,0.567,0.930362540995702,1
12,20,0.06,1,1,0.626,0.969740249915048,1
12,21,0.06,2,2,0.634,1.33739454089664,1
12,22,0.06,2,2,0.624,0.738316542003304,1
12,23,0.06,1,1,0.612,1.30637308396399,1
12,24,0.06,2,2,0.543,1.15342024993151,1
12,25,0.06,2,1,0.609,0.853182584047318,0
12,26,0.06,2,1,0.543,0.883771083084866,0
12,27,0.06,1,2,0.701,0.979252249933779,0
12,28,0.06,2,1,0.591,1.14828662504442,0
12,29,0.06,1,1,0.506,1.05299274995923,1
12,30,0.06,2,2,0.621,0.842025415971875,1
12,1,0.06,2,1,0.5,21.0495617920533,0
12,2,0.06,2,2,0.631,0.841292584082112,1
12,3,0.06,2,2,0.659,0.706582332961261,1
12,4,0.06,2,2,0.659,0.548079666215926,1
12,5,0.06,2,2,0.644,0.818774166051298,1
12,6,0.06,1,2,0.596,0.991822957992554,0
12,7,0.06,1,1,0.64,0.771370874950662,1
12,8,0.06,1,1,0.669,0.852510249940678,1
12,9,0.06,1,1,0.668,0.508380624931306,1
12,10,0.06,2,2,0.71,1.25070070894435,1
12,11,0.06,2,1,0.581,1.26028066687286,0
12,12,0.06,2,1,0.692,1.12205845792778,0
12,13,0.06,2,2,0.702,1.17265591700561,1
12,14,0.06,2,2,0.6,0.862460917094722,1
12,15,0.06,1,2,0.57,1.03775320784189,0
12,16,0.06,1,1,0.663,0.818671124987304,1
12,17,0.06,2,1,0.588,1.25015154108405,0
12,18,0.06,2,2,0.609,0.844837832963094,1
12,19,0.06,2,2,0.635,1.33899229113013,1
12,20,0.06,2,2,0.685,0.776534124976024,1
12,21,0.06,1,2,0.688,0.7781566248741,0
12,22,0.06,2,2,0.628,0.995305540971458,1
12,23,0.06,1,1,0.561,1.02156329201534,1
12,24,0.06,2,2,0.544,0.906349041964859,1
12,25,0.06,2,2,0.623,0.739620625041425,1
12,26,0.06,1,2,0.631,1.04158037505113,0
12,27,0.06,2,2,0.633,67.541888125008,1
12,28,0.06,1,1,0.567,1.34226637496613,1
12,29,0.06,1,2,0.625,2.01132429111749,0
12,30,0.06,2,1,0.6,1.47037116601132,0
12,1,0.06,2,2,0.637,100.258131791838,1
12,2,0.06,1,1,0.632,1.08575624995865,1
12,3,0.06,2,2,0.578,0.874521125108004,1
12,4,0.06,2,2,0.609,0.893437125021592,1
12,5,0.06,2,2,0.634,0.874994625104591,1
12,6,0.06,1,1,0.619,0.975361165823415,1
12,7,0.06,1,2,0.625,21.7596528748982,0
12,8,0.06,1,2,0.545,1.064067624975,0
12,9,0.06,2,2,0.684,0.958336874842644,1
12,10,0.06,1,1,0.685,1.40367512498051,1
12,11,0.06,2,2,0.654,1.02282045898028,1
12,12,0.06,1,1,0.568,0.990751375211403,1
12,13,0.06,2,2,0.674,0.980406916933134,1
12,14,0.06,1,1,0.596,1.02531099994667,1
12,15,0.06,2,2,0.701,0.7159855409991,1
12,16,0.06,1,2,0.611,0.818345749983564,0
12,17,0.06,2,2,0.607,0.79499787488021,1
12,18,0.06,2,2,0.631,0.70357674988918,1
12,19,0.06,1,1,0.582,0.964986416045576,1
12,20,0.06,1,1,0.623,0.785146833863109,1
12,21,0.06,1,1,0.696,0.734059209004045,1
12,22,0.06,1,1,0.638,0.828614624915645,1
12,23,0.06,2,2,0.68,0.779280707938597,1
12,24,0.06,1,1,0.513,1.02985166711733,1
12,25,0.06,2,2,0.555,2.35889420798048,1
12,26,0.06,2,2,0.631,0.743708374910057,1
12,27,0.06,2,2,0.631,41.2651714589447,1
12,28,0.06,2,1,0.554,0.840852499939501,0
12,29,0.06,2,2,0.553,0.852250166935846,1
12,30,0.06,2,1,0.598,0.908601250033826,0
12,1,0.06,1,1,0.648,358.886324041989,1
12,2,0.06,2,2,0.667,0.983399000018835,1
12,3,0.06,1,1,0.665,1.24557704222389,1
12,4,0.06,2,2,0.632,1.02235733298585,1
12,5,0.06,2,2,0.622,0.808689167024568,1
12,6,0.06,1,2,0.64,0.938027458032593,0
12,7,0.06,2,2,0.599,0.946730749914423,1
12,8,0.06,2,2,0.629,1.64638412487693,1
12,9,0.06,1,2,0.629,53.881215166999,0
12,10,0.06,1,1,0.62,0.867271207971498,1
12,11,0.06,2,2,0.616,1.718271125108,1
12,12,0.06,2,2,0.616,23.9804349169135,1
12,13,0.06,2,2,0.631,1.08365741604939,1
12,14,0.06,2,1,0.619,0.692283666925505,0
12,15,0.06,1,2,0.635,0.981386333005503,0
12,16,0.06,1,2,0.726,25.0445532919839,0
12,17,0.06,1,1,0.66,0.977215833030641,1
12,18,0.06,1,2,0.609,1.24947924981825,0
12,19,0.06,1,2,0.576,0.994054667185992,0
12,20,0.06,2,2,0.642,0.786087208194658,1
12,21,0.06,1,1,0.54,1.13737079198472,1
12,22,0.06,1,1,0.606,0.79228900000453,1
12,23,0.06,1,2,0.572,0.900209791027009,0
12,24,0.06,1,2,0.65,0.738620457937941,0
12,25,0.06,2,2,0.574,0.803279249928892,1
12,26,0.06,2,2,0.572,0.727430499857292,1
12,27,0.06,2,2,0.636,0.71561604202725,1
12,28,0.06,2,2,0.683,0.833939834032208,1
12,29,0.06,1,1,0.583,0.899689666926861,1
12,30,0.06,1,1,0.605,0.837620374979451,1
12,1,0.08,2,2,0.659,1.47796429111622,1
12,2,0.08,1,1,0.591,0.935572583926842,1
12,3,0.08,2,1,0.563,0.6951443341095,0
12,4,0.08,2,2,0.713,0.570820875000209,1
12,5,0.08,1,1,0.592,1.10598554206081,1
12,6,0.08,2,2,0.594,0.988109624944627,1
12,7,0.08,1,1,0.592,0.929801125079393,1
12,8,0.08,1,1,0.673,1.1083781667985,1
12,9,0.08,1,1,0.702,0.634172959020361,1
12,10,0.08,2,2,0.585,0.794692709110677,1
12,11,0.08,2,2,0.589,0.687985750148073,1
12,12,0.08,2,2,0.642,0.667125833919272,1
12,13,0.08,1,1,0.593,0.730747207999229,1
12,14,0.08,2,2,0.555,0.800238125026226,1
12,15,0.08,2,2,0.595,0.642962916055694,1
12,16,0.08,1,1,0.562,0.685702542075887,1
12,17,0.08,1,1,0.674,1.52354225004092,1
12,18,0.08,1,1,0.59,1.03596445801668,1
12,19,0.08,1,1,0.579,1.16479687485844,1
12,20,0.08,2,2,0.639,0.823527375003323,1
12,21,0.08,2,2,0.659,0.769398332806304,1
12,22,0.08,2,2,0.659,0.468460541917011,1
12,23,0.08,2,2,0.655,0.579654833069071,1
12,24,0.08,1,1,0.599,1.0217508750502,1
12,25,0.08,1,1,0.575,0.795128459110856,1
12,26,0.08,1,1,0.577,1.42277641710825,1
12,27,0.08,2,2,0.639,0.655198875116184,1
12,28,0.08,1,1,0.602,0.737484792014584,1
12,29,0.08,2,2,0.55,0.84475254197605,1
12,30,0.08,1,1,0.619,0.826648541959003,1
12,1,0.08,2,2,0.601,18.6850473340601,1
12,2,0.08,2,1,0.568,0.919611625140533,0
12,3,0.08,1,1,0.634,0.898831041064113,1
12,4,0.08,1,2,0.591,1.09271079208702,0
12,5,0.08,2,2,0.623,0.835431041894481,1
12,6,0.08,1,1,0.582,1.06285183294676,1
12,7,0.08,1,2,0.589,0.711225958075374,0
12,8,0.08,2,2,0.546,0.691869790898636,1
12,9,0.08,1,1,0.648,0.699306915979832,1
12,10,0.08,2,2,0.582,0.59592912485823,1
12,11,0.08,2,2,0.582,0.418217124883085,1
12,12,0.08,2,2,0.582,0.544182375073433,1
12,13,0.08,2,2,0.627,1.7391559171956,1
12,14,0.08,2,2,0.627,17.43220208399,1
12,15,0.08,1,1,0.573,0.802191957831383,1
12,16,0.08,2,2,0.568,0.605948167154565,1
12,17,0.08,1,1,0.643,0.680783791933209,1
12,18,0.08,1,1,0.676,0.878938874928281,1
12,19,0.08,2,2,0.636,0.687781374901533,1
12,20,0.08,2,2,0.637,0.589386583073065,1
12,21,0.08,2,2,0.647,0.612616457976401,1
12,22,0.08,2,2,0.637,0.497421583160758,1
12,23,0.08,2,2,0.636,0.395612125052139,1
12,24,0.08,2,2,0.637,0.4019935419783,1
12,25,0.08,2,2,0.675,1.19557683402672,1
12,26,0.08,1,1,0.585,1.30127783399075,1
12,27,0.08,2,2,0.604,0.929829458007589,1
12,28,0.08,2,1,0.566,0.669601832982153,0
12,29,0.08,2,1,0.545,0.701522625051439,0
12,30,0.08,2,2,0.58,0.634148665936664,1
12,1,0.08,2,2,0.63,18.7604916670825,1
12,2,0.08,1,1,0.727,0.851579416776076,1
12,3,0.08,2,2,0.668,0.794848750112578,1
12,4,0.08,1,1,0.561,0.986643500160426,1
12,5,0.08,2,2,0.652,0.604165374999866,1
12,6,0.08,2,2,0.553,0.661592083983123,1
12,7,0.08,1,1,0.688,0.842056249966845,1
12,8,0.08,1,1,0.647,0.634958624839783,1
12,9,0.08,2,2,0.616,0.828422792023048,1
12,10,0.08,1,1,0.621,0.769974624970928,1
12,11,0.08,1,1,0.618,0.921077125007287,1
12,12,0.08,1,1,0.617,0.437906374922022,1
12,13,0.08,2,2,0.632,0.713843999896199,1
12,14,0.08,2,2,0.632,0.420877540949732,1
12,15,0.08,1,1,0.586,1.10001862491481,1
12,16,0.08,1,1,0.605,1.30225829198025,1
12,17,0.08,1,1,0.552,0.675599667010829,1
12,18,0.08,1,1,0.557,0.804863041965291,1
12,19,0.08,2,2,0.589,0.691612791037187,1
12,20,0.08,2,2,0.764,0.821953667094931,1
12,21,0.08,2,2,0.725,0.70966333290562,1
12,22,0.08,2,2,0.626,1.60799024999142,1
12,23,0.08,2,2,0.627,0.577780165942386,1
12,24,0.08,2,2,0.627,0.484123875154182,1
12,25,0.08,2,2,0.669,0.791193709010258,1
12,26,0.08,2,2,0.686,0.770206541987136,1
12,27,0.08,2,2,0.644,0.848238875158131,1
12,28,0.08,2,2,0.652,0.853453958174214,1
12,29,0.08,1,1,0.998,2.48111195815727,1
12,30,0.08,1,1,0.772,0.826088167028502,1
12,1,0.08,2,1,0.599,1.20926533383317,0
12,2,0.08,2,2,0.77,0.761765250004828,1
12,3,0.08,1,2,0.64,0.891609165817499,0
12,4,0.08,1,1,0.648,1.19935895898379,1
12,5,0.08,2,2,0.676,2.79560624994338,1
12,6,0.08,1,1,0.529,1.03189170896076,1
12,7,0.08,1,1,0.581,0.914915125118569,1
12,8,0.08,2,2,0.675,0.665877665858716,1
12,9,0.08,2,2,0.675,1.00398733303882,1
12,10,0.08,1,1,0.579,0.874879749957472,1
12,11,0.08,2,2,0.711,0.677493917057291,1
12,12,0.08,1,1,0.657,0.961889250203967,1
12,13,0.08,1,1,0.679,0.800016083056107,1
12,14,0.08,1,1,0.703,0.762435209006071,1
12,15,0.08,2,2,0.671,1.12170483288355,1
12,16,0.08,1,1,0.621,0.918784292181954,1
12,17,0.08,1,1,0.571,0.860603000037372,1
12,18,0.08,2,2,0.672,0.976290791993961,1
12,19,0.08,1,1,0.55,1.12549633299932,1
12,20,0.08,2,2,0.627,0.667535917134956,1
12,21,0.08,1,1,0.562,0.826611416880041,1
12,22,0.08,1,1,0.582,0.783951417077333,1
12,23,0.08,2,2,0.671,0.796114832861349,1
12,24,0.08,1,1,0.623,1.38383116596378,1
12,25,0.08,1,1,0.717,1.09725866699591,1
12,26,0.08,1,1,0.629,0.769587832968682,1
12,27,0.08,1,1,0.556,0.868811040883884,1
12,28,0.08,1,1,0.607,1.19773662509397,1
12,29,0.08,1,1,0.591,0.825426959199831,1
12,30,0.08,1,1,0.586,0.532462458126247,1
12,1,0.045,2,2,0.564,1.36869787494652,1
12,2,0.045,2,2,0.66,0.643910250160843,1
12,3,0.045,2,1,0.568,1.02098225010559,0
12,4,0.045,2,1,0.588,0.695364166982472,0
12,5,0.045,2,2,0.659,0.541476665996015,1
12,6,0.045,2,2,0.661,0.838010499952361,1
12,7,0.045,1,1,0.57,0.864707499975339,1
12,8,0.045,1,1,0.785,0.992379165953025,1
12,9,0.045,2,1,0.729,1.09562700008973,0
12,10,0.045,2,1,0.728,0.748221334069967,0
12,11,0.045,1,1,0.567,0.629823500057682,1
12,12,0.045,1,1,0.549,0.683856875170022,1
12,13,0.045,1,1,0.712,1.1069212500006,1
12,14,0.045,2,1,0.682,1.44466741685756,0
12,15,0.045,1,1,0.596,0.651980832917616,1
12,16,0.045,2,2,0.622,0.706465082941577,1
12,17,0.045,2,2,0.604,0.628588000079617,1
12,18,0.045,2,2,0.604,0.51613812497817,1
12,19,0.045,2,2,0.662,0.750161750009283,1
12,20,0.045,1,2,0.667,0.906120207859203,0
12,21,0.045,2,1,0.614,0.820795582840219,0
12,22,0.045,2,2,0.685,0.762744750129059,1
12,23,0.045,2,2,0.705,0.925486417021602,1
12,24,0.045,2,2,0.758,0.717575541930273,1
12,25,0.045,2,2,0.801,0.667029290925711,1
12,26,0.045,2,1,0.58,0.765831291908398,0
12,27,0.045,1,1,0.588,0.633529999991879,1
12,28,0.045,2,2,0.716,0.676305250031874,1
12,29,0.045,1,1,0.565,0.978956541977823,1
12,30,0.045,2,1,0.565,0.638424374861643,0
12,1,0.045,2,1,0.611,1.87435399997048,0
12,2,0.045,2,2,0.621,0.727431833045557,1
12,3,0.045,1,2,0.611,0.588093291036785,0
12,4,0.045,2,2,0.712,0.889491374837235,1
12,5,0.045,1,2,0.679,0.820484707830474,0
12,6,0.045,2,2,0.664,0.570842332905158,1
12,7,0.045,1,1,0.636,0.59257295797579,1
12,8,0.045,2,1,0.631,0.563978750025854,0
12,9,0.045,2,2,0.653,0.725050707813352,1
12,10,0.045,1,2,0.65,0.682601249776781,0
12,11,0.045,2,2,0.556,0.738342333119363,1
12,12,0.045,2,2,0.675,0.93955587502569,1
12,13,0.045,1,1,0.585,1.07816495909356,1
12,14,0.045,1,1,0.597,0.643462250009179,1
12,15,0.045,2,2,0.672,0.877409874927253,1
12,16,0.045,1,1,0.593,0.981025792192668,1
12,17,0.045,1,2,0.571,0.917857458116487,0
12,18,0.045,1,1,0.635,0.870053040795028,1
12,19,0.045,2,2,0.609,0.771340416977182,1
12,20,0.045,1,2,0.669,0.590495207812637,0
12,21,0.045,1,2,0.7,0.652711750008166,0
12,22,0.045,2,2,0.618,1.33969691698439,1
12,23,0.045,2,2,0.71,0.766863874858245,1
12,24,0.045,1,2,0.661,0.549582917010412,0
12,25,0.045,2,2,0.7,0.753414375009015,1
12,26,0.045,1,2,0.697,0.546089084120467,0
12,27,0.045,1,2,0.664,0.778919625096023,0
12,28,0.045,1,2,0.758,0.704671791056171,0
12,29,0.045,2,2,0.638,0.702513083117083,1
12,30,0.045,1,2,0.622,0.58777324995026,0
12,1,0.045,1,1,0.655,0.993678792146966,1
12,2,0.045,2,2,0.601,0.468006666051224,1
12,3,0.045,2,2,0.717,0.600244750035927,1
12,4,0.045,1,2,0.671,0.652338166953996,0
12,5,0.045,2,1,0.576,0.573426167014986,0
12,6,0.045,2,2,0.598,0.442074749851599,1
12,7,0.045,2,2,0.699,0.958290708018467,1
12,8,0.045,1,2,0.745,0.707026957999915,0
12,9,0.045,1,1,0.589,0.769398000091314,1
12,10,0.045,2,2,0.728,0.921717166202143,1
12,11,0.045,1,1,0.588,1.0116993340198,1
12,12,0.045,1,2,0.775,0.673854624852538,0
12,13,0.045,1,2,0.715,0.836864999961108,0
12,14,0.045,1,2,0.619,0.708557124948129,0
12,15,0.045,2,2,0.626,0.627533708931878,1
12,16,0.045,2,2,0.614,0.718352457974106,1
12,17,0.045,2,2,0.575,0.805477000074461,1
12,18,0.045,2,2,0.618,0.601333832833916,1
12,19,0.045,2,2,0.655,0.564200625056401,1
12,20,0.045,2,2,0.656,0.692144875181839,1
12,21,0.045,2,2,0.613,0.643003541976213,1
12,22,0.045,2,2,0.593,1.55775362509303,1
12,23,0.045,2,2,0.763,0.602569499984384,1
12,24,0.045,2,1,0.672,0.537215499905869,0
12,25,0.045,1,2,0.597,0.598428957862779,0
12,26,0.045,1,2,0.589,0.773971040965989,0
12,27,0.045,1,2,0.594,4.50245912489481,0
12,28,0.045,1,2,0.628,0.554271209053695,0
12,29,0.045,1,1,0.692,0.684200541116297,1
12,30,0.045,2,1,0.631,0.644517333013937,0
12,1,0.045,1,2,0.622,1.42020012484863,0
12,2,0.045,1,1,0.591,0.679801417049021,1
12,3,0.045,2,1,0.613,0.555071832844988,0
12,4,0.045,1,2,0.571,0.747259499970824,0
12,5,0.045,2,1,0.577,0.731354875024408,0
12,6,0.045,2,1,0.646,0.674664624966681,0
